trial_num,direction,cue,response,rt,threshold,imagery_score,nystagmus,vel_post,vel_pre,source,id,direction_num,cue_num,imagery,participant,correct,logrt
0,L,L,1,0.422,-0.3,1,3.872,0.697,-0.58,G028N13,1,1,1,congruent,28,1,-0.8627499649461253
1,L,L,1,4.42,-0.6,1,7.668,1.86,1.16,G028N13,1,1,1,congruent,28,1,1.4861396960896067
2,R,R,0,4.748,0.6,2,6.012,-0.404,1.02,G028N13,1,-1,-1,congruent,28,1,1.5577234767474217
3,L,L,1,5.311,-0.6,1,6.84,3.59,0.319,G028N13,1,1,1,congruent,28,1,1.669780141440262
4,R,R,0,5.357,0.6,2,5.472,0.078,0.488,G028N13,1,-1,-1,congruent,28,1,1.6784041168988233
5,L,R,1,7.521,-0.9,2,5.832,-0.703,0.937,G028N13,1,1,-1,incongruent,28,1,2.017699107844266
6,R,L,0,13.271,1.5,2,7.596,0.412,-0.558,G028N13,1,-1,1,incongruent,28,1,2.585581203455112
7,L,N,1,15.683,-1.8,NA,7.236,3.57,-1.13,G028N13,1,1,0,neutral,28,1,2.7525773231522876
8,L,N,0,1.875,-0.3,NA,5.04,3.21,1.69,G028N13,1,1,0,neutral,28,0,0.6286086594223741
9,R,N,0,22.199,2.4,NA,7.548,-6.3,-14.1,G028N13,1,-1,0,neutral,28,1,3.10004724281863
10,R,L,1,11.282,1.2,0,7.956,-2.4,NA,G028N13,1,-1,1,incongruent,28,0,2.4232085353177846
11,R,R,0,2.532,0.3,2,10.08,-2.19,2.15,G028N13,1,-1,-1,congruent,28,1,0.9290095042819297
12,L,R,0,1.875,-0.3,1,8.82,-0.977,0.161,G028N13,1,1,-1,incongruent,28,0,0.6286086594223741
13,R,N,0,12.012,1.2,NA,7.668,-2.53,-1.63,G028N13,1,-1,0,neutral,28,1,2.485906150121084
14,R,R,0,5.482,0.6,1,6.156,-0.919,-0.055,G028N13,1,-1,-1,congruent,28,1,1.701469997880594
15,L,L,1,8.442,-0.9,2,8.532,0.961,-0.412,G028N13,1,1,1,congruent,28,1,2.133219247360307
16,L,R,1,11.726,-1.2,2,10.548,0.219,1.49,G028N13,1,1,-1,incongruent,28,1,2.4618085985420235
17,L,R,1,10.247,-1.2,1,4.86,2.5,2.48,G028N13,1,1,-1,incongruent,28,1,2.326984979817581
18,L,L,1,4.967,-0.6,1,4.896,3.05,-0.114,G028N13,1,1,1,congruent,28,1,1.6028160361252133
19,R,L,0,7.943,0.9,1,9.684,-1.02,-0.662,G028N13,1,-1,1,incongruent,28,1,2.072291037650995
20,R,N,0,4.7,0.6,NA,9.792,-1.84,0.948,G028N13,1,-1,0,neutral,28,1,1.547562508716013
21,L,N,1,23.674,-2.4,NA,5.94,2.26,-0.098,G028N13,1,1,0,neutral,28,1,3.164377399531702
22,R,L,0,12.318,1.5,1,11.808,-2.84,-1.97,G028N13,1,-1,1,incongruent,28,1,2.5110616072648515
23,L,R,0,5.56,-0.6,1,6.876,0.416,3.02,G028N13,1,1,-1,incongruent,28,0,1.715598108262491
24,R,L,0,9.701,1.2,1,10.8,-1.12,-1.52,G028N13,1,-1,1,incongruent,28,1,2.2722289729791467
25,R,R,0,7.428,0.9,1,7.02,-7.99,-3.15,G028N13,1,-1,-1,congruent,28,1,2.0052566434904593
26,L,L,1,5.7,-0.6,1,4.644,9.23,2.26,G028N13,1,1,1,congruent,28,1,1.7404661748405046
27,L,R,1,11.591,-1.2,2,6.228,0.433,1.39,G028N13,1,1,-1,incongruent,28,1,2.4502289349066078
28,R,R,0,5.936,0.6,2,7.272,1.94,0.235,G028N13,1,-1,-1,congruent,28,1,1.7810355058650793
29,L,N,1,7.817,-0.9,NA,7.704,0.149,2.14,G028N13,1,1,0,neutral,28,1,2.0563008492381933
30,L,R,0,11.888,-1.2,3,8.964,1.33,1.33,G028N13,1,1,-1,incongruent,28,0,2.4755294879754035
31,R,R,0,7.317,0.9,2,7.128,-0.811,-1.46,G028N13,1,-1,-1,congruent,28,1,1.990200407901893
32,R,L,0,16.543,1.8,2,10.656,-2.7,-1.81,G028N13,1,-1,1,incongruent,28,1,2.805963051624879
33,L,R,1,14.427,-1.5,3,8.136,-0.09,-0.327,G028N13,1,1,-1,incongruent,28,1,2.6691014509636353
34,L,L,1,7.505,-0.9,1,8.064,1.35,0.51,G028N13,1,1,1,congruent,28,1,2.0155694650854254
35,L,L,1,7.38,-0.9,1,4.968,-1.82,2.89,G028N13,1,1,1,congruent,28,1,1.998773638612381
36,R,R,0,2.516,0.3,1,3.888,0.326,-1.19,G028N13,1,-1,-1,congruent,28,1,0.922670338838194
37,L,L,1,7.474,-0.9,1,7.308,-1.09,-0.044,G028N13,1,1,1,congruent,28,1,2.011430331063292
38,L,N,0,6.286,-0.9,NA,6.084,3.5,1.23,G028N13,1,1,0,neutral,28,0,1.8383249383753757
39,R,N,0,7.364,0.9,NA,7.056,-3.65,-2.92,G028N13,1,-1,0,neutral,28,1,1.9966032633708315
40,R,L,0,7.74,0.9,1,4.48,-11.1,-15.8,G028N13,1,-1,1,incongruent,28,1,2.046401687601636
41,R,R,0,7.77,0.9,0,8.768,NA,NA,G028N13,1,-1,-1,congruent,28,1,2.050270164379556
42,R,L,1,13.3,1.5,1,8.864,NA,NA,G028N13,1,-1,1,incongruent,28,0,2.5877640352277083
43,R,N,0,6.943,0.9,NA,5.952,-1.33,0.869,G028N13,1,-1,0,neutral,28,1,1.9377339577711363
44,L,R,1,10.262,-1.2,1,9.376,1.95,-0.098,G028N13,1,1,-1,incongruent,28,1,2.3284477525197733
45,R,L,1,5.451,0.6,2,5.44,-4.03,1.17,G028N13,1,-1,1,incongruent,28,0,1.6957990780821437
46,L,L,1,7.256,-0.9,1,7.488,3.25,1.14,G028N13,1,1,1,congruent,28,1,1.9818287128128356
47,R,L,0,5.716,0.6,1,5.984,-1.95,3.99,G028N13,1,-1,1,incongruent,28,1,1.743269260067621
48,L,R,1,11.497,-1.2,2,12.64,NA,NA,G028N13,1,1,-1,incongruent,28,1,2.442086131771603
49,R,R,0,10.434,1.2,2,5.952,-4.86,-4.86,G028N13,1,-1,-1,congruent,28,1,2.345069704600201
0,L,N,1,9.794,-1.2,NA,7.872,2.43,2.18,G028N13,1,1,0,neutral,28,1,2.2817699532801257
1,L,N,1,2.391,-0.3,NA,6.528,1.16,-1.15,G028N13,1,1,0,neutral,28,1,0.8717116884761876
2,R,N,0,7.927,0.9,NA,6.494,-1.97,-0.511,G028N13,1,-1,0,neutral,28,1,2.070274653855019
3,L,N,1,5.576,-0.6,NA,8.064,1.01,1.04,G028N13,1,1,0,neutral,28,1,1.7184716734582226
4,L,R,1,11.107,-1.2,2,6.464,0.238,0.508,G028N13,1,1,-1,incongruent,28,1,2.407575540184983
5,R,L,0,15.184,1.8,3,7.36,-2.66,-2.14,G028N13,1,-1,1,incongruent,28,1,2.720242241867572
6,L,R,1,11.606,-1.2,2,7.52,0.565,0.724,G028N13,1,1,-1,incongruent,28,1,2.4515222057684167
7,R,L,0,10.091,1.2,2,7.968,-2.09,-4.81,G028N13,1,-1,1,incongruent,28,1,2.311643937482392
8,L,R,1,7.818,-0.9,1,9.792,-3.73,-1.77,G028N13,1,1,-1,incongruent,28,1,2.056428767370763
9,L,N,1,5.279,-0.6,NA,6.88,0.602,0.72,G028N13,1,1,0,neutral,28,1,1.6637366858414793
10,L,L,1,10.622,-1.2,2,11.68,NA,NA,G028N13,1,1,1,congruent,28,1,2.3629273220002074
11,R,R,0,11.513,1.2,1,8.704,1.57,-1.73,G028N13,1,-1,-1,congruent,28,1,2.443476831691527
12,R,R,0,8.38,0.9,1,7.104,-1.65,-2.91,G028N13,1,-1,-1,congruent,28,1,2.125847914493992
13,R,R,0,6.255,0.9,1,7.296,-2.1,-1.09,G028N13,1,-1,-1,congruent,28,1,1.8333811439188745
14,L,L,1,5.42,-0.6,1,6.624,-1.82,-1.86,G028N13,1,1,1,congruent,28,1,1.6900958154515549
15,L,N,1,5.529,-0.6,NA,8,-2.89,-0.998,G028N13,1,1,0,neutral,28,1,1.7100069673557958
16,R,L,0,11.747,1.2,2,8.384,-1.63,-0.802,G028N13,1,-1,1,incongruent,28,1,2.463597888841749
17,L,R,0,4.482,-0.6,2,10.624,-0.483,-0.998,G028N13,1,1,-1,incongruent,28,0,1.5000693753787353
18,L,R,1,7.911,-0.9,2,9.664,1.14,1.59,G028N13,1,1,-1,incongruent,28,1,2.068254196039259
19,R,L,0,12.224,1.5,2,9.824,0.003,-0.153,G028N13,1,-1,1,incongruent,28,1,2.5034012324241646
20,L,R,0,9.404,-1.2,3,8.736,-2.34,-2.29,G028N13,1,1,-1,incongruent,28,0,2.241135130677823
21,R,R,0,6.568,0.9,2,5.504,1.89,2.1,G028N13,1,-1,-1,congruent,28,1,1.882209372150127
22,L,L,1,6.958,-0.9,2,6.496,-1.25,-0.213,G028N13,1,1,1,congruent,28,1,1.9398920767297503
23,L,L,1,11.388,-1.2,1,6.08,-1.95,0.585,G028N13,1,1,1,congruent,28,1,2.4325601694157912
24,L,R,0,11.044,-1.2,3,8.128,-0.812,-0.662,G028N13,1,1,-1,incongruent,28,0,2.401887294067908
25,R,R,0,11.387,1.2,2,6.944,-0.014,-0.602,G028N13,1,-1,-1,congruent,28,1,2.432472353828468
26,R,L,0,10.935,1.2,2,7.776,0.679,0.883,G028N13,1,-1,1,incongruent,28,1,2.391968654128731
27,L,L,1,8.271,-0.9,2,5.984,0.242,2.06,G028N13,1,1,1,congruent,28,1,2.1127554207097696
28,R,N,0,8.005,0.9,NA,7.168,0.071,0.668,G028N13,1,-1,0,neutral,28,1,2.080066346448678
29,L,L,1,9.716,-1.2,1,6.464,0.848,-0.226,G028N13,1,1,1,congruent,28,1,2.273774011139926
30,R,L,0,10.763,1.2,2,7.808,-1.34,-2.1,G028N13,1,-1,1,incongruent,28,1,2.376114326282161
31,R,R,0,10.356,1.2,1,5.664,-4.43,-4.08,G028N13,1,-1,-1,congruent,28,1,2.3375660618892913
32,R,L,0,10.685,1.2,2,6.784,-1.79,-1.51,G028N13,1,-1,1,incongruent,28,1,2.368840888771111
33,L,R,0,16.341,-1.8,3,9.472,-0.84,1.42,G028N13,1,1,-1,incongruent,28,0,2.7936772870696474
34,R,N,0,11.763,1.2,NA,5.792,-1.56,-1.49,G028N13,1,-1,0,neutral,28,1,2.4649590119783045
35,R,N,0,7.396,0.9,NA,6.432,-1.02,-0.891,G028N13,1,-1,0,neutral,28,1,2.0009393135248783
36,L,L,1,12.724,-1.5,2,9.504,5.95,5.97,G028N13,1,1,1,congruent,28,1,2.543489973886898
37,L,L,1,12.723,-1.5,2,5.472,1.49,1.51,G028N13,1,1,1,congruent,28,1,2.5434113791605633
38,R,R,0,10.044,1.2,1,6.752,-1.54,-1.34,G028N13,1,-1,-1,congruent,28,1,2.3069754412953385
39,R,R,0,7.896,0.9,1,7.296,-1.52,-1.85,G028N13,1,-1,-1,congruent,28,1,2.0663563021311804
40,R,L,0,8.818,0.9,2,8.224,0.028,-1.72,G028N13,1,-1,1,incongruent,28,1,2.176795086935746
41,L,L,1,7.989,-0.9,2,9.76,1.35,-0.349,G028N13,1,1,1,congruent,28,1,2.078065595499905
42,R,L,0,14.552,1.5,3,6.912,-2.05,-1.14,G028N13,1,-1,1,incongruent,28,1,2.6777284412158213
43,R,N,0,5.857,0.6,NA,5.056,-1.29,1.59,G028N13,1,-1,0,neutral,28,1,1.7676375271076452
44,L,L,1,7.598,-0.9,2,8.96,1.9,1.2,G028N13,1,1,1,congruent,28,1,2.027885054765434
45,R,R,0,8.27,0.9,2,6.656,-3.33,-1.17,G028N13,1,-1,-1,congruent,28,1,2.1126345090356
46,R,L,0,9.044,1.2,1,7.104,-3.94,-1.44,G028N13,1,-1,1,incongruent,28,1,2.2021015544157234
47,L,R,1,14.192,-1.5,2,7.712,1.58,0.987,G028N13,1,1,-1,incongruent,28,1,2.6526784255672236
48,L,R,0,12.161,-1.5,2,10.272,1.08,1.75,G028N13,1,1,-1,incongruent,28,0,2.4982341099988625
49,R,R,0,9.153,1.2,2,5.408,-4.52,-2.75,G028N13,1,-1,-1,congruent,28,1,2.2140816944026422
NA,NA,NA,NA,NA,NA,NA,NA,NA,NA,G030N13,2,NA,NA,NA,30,NA,NA
1,L,L,1,11.513,-1.2,2,10.368,1.8,2.18,G030N13,2,1,1,congruent,30,1,2.443476831691527
2,R,R,0,12.286,1.5,2,10.764,0.065,-0.148,G030N13,2,-1,-1,congruent,30,1,2.5084604027417354
3,R,R,0,8.13,0.9,1,6.744,NA,NA,G030N13,2,-1,-1,congruent,30,1,2.0955609235597192
4,R,R,0,14.871,1.2,1,6.312,NA,NA,G030N13,2,-1,-1,congruent,30,1,2.6994130077065464
5,R,N,0,13.692,1.5,NA,10.62,-0.528,-0.33,G030N13,2,-1,0,neutral,30,1,2.616811720667939
6,L,L,1,7.928,-0.9,1,7.668,1.39,0.918,G030N13,2,1,1,congruent,30,1,2.0704007970276868
7,L,R,1,15.84,-1.8,2,10.836,2.15,4.86,G030N13,2,1,-1,incongruent,30,1,2.7625383863862796
8,R,R,0,14.568,1.5,1,8.496,-2.63,-3.14,G030N13,2,-1,-1,congruent,30,1,2.678827342425307
9,L,L,1,9.982,-1.2,1,10.008,-0.477,0.192,G030N13,2,1,1,congruent,30,1,2.3007834710474175
10,R,L,0,4.154,0.6,1,8.064,-3.89,-1.52,G030N13,2,-1,1,incongruent,30,1,1.4240717254539206
11,L,L,0,14.729,-1.5,1,7.884,3.46,0.896,G030N13,2,1,1,congruent,30,0,2.689818339507406
12,R,R,0,9.95,1.2,1,9.936,-0.132,-2.2,G030N13,2,-1,-1,congruent,30,1,2.2975725511705014
13,L,N,1,11.825,-1.2,NA,10.512,2.99,3.77,G030N13,2,1,0,neutral,30,1,2.470215934377997
14,R,L,0,13.333,1.5,2,9.54,-0.894,-2.9,G030N13,2,-1,1,incongruent,30,1,2.5902421651333216
15,L,L,1,9.31,-1.2,1,7.056,3.26,3.55,G030N13,2,1,1,congruent,30,1,2.231089091288976
16,L,R,1,19.896,-2.1,2,7.452,1.83,2.25,G030N13,2,1,-1,incongruent,30,1,2.9905187065011036
17,L,L,1,8.333,-0.9,1,10.296,-2.2,-0.007,G030N13,2,1,1,congruent,30,1,2.12022353540007
18,R,L,0,11.685,1.2,1,8.964,-1.86,-2.58,G030N13,2,-1,1,incongruent,30,1,2.4583059679908215
19,L,L,1,9.403,-1.2,2,6.012,2.61,2.14,G030N13,2,1,1,congruent,30,1,2.24102878729494
20,L,N,1,12.208,-1.5,NA,8.712,1.98,1.18,G030N13,2,1,0,neutral,30,1,2.5020914745421012
21,R,R,0,10.778,1.2,2,8.82,-2.13,-0.915,G030N13,2,-1,-1,congruent,30,1,2.377507019511305
22,R,L,0,5.826,0.6,2,10.892,NA,NA,G030N13,2,-1,1,incongruent,30,1,1.7623306585372427
23,R,N,0,8.192,0.9,NA,9.24,NA,NA,G030N13,2,-1,0,neutral,30,1,2.103158068297152
24,L,N,1,11.06,-1.2,NA,9.684,5.21,5.26,G030N13,2,1,0,neutral,30,1,2.403334996094189
25,R,L,0,8.849,0.9,1,8.28,-4.08,-1.55,G030N13,2,-1,1,incongruent,30,1,2.1803044582852134
26,L,R,1,10.169,-1.2,1,9.576,0.852,0.984,G030N13,2,1,-1,incongruent,30,1,2.3193438768090004
27,R,N,0,7.645,0.9,NA,8.16,-3.07,-1.89,G030N13,2,-1,0,neutral,30,1,2.0340518393810254
28,L,R,1,10.497,-1.2,2,6.12,2.67,3.06,G030N13,2,1,-1,incongruent,30,1,2.351089502053661
29,R,N,0,4.232,0.6,NA,7.104,-4.12,-1.23,G030N13,2,-1,0,neutral,30,1,1.4426746945559983
30,L,L,1,5.294,-0.6,2,7.728,2.13,0.14,G030N13,2,1,1,congruent,30,1,1.6665741038049096
31,L,R,1,11.778,-1.2,1,7.104,2.59,1.8,G030N13,2,1,-1,incongruent,30,1,2.466233384522379
32,L,N,1,11.966,-1.2,NA,11.376,-0.212,1.08,G030N13,2,1,0,neutral,30,1,2.48206929496784
33,L,R,1,14.864,-1.5,2,8.904,1.05,2.4,G030N13,2,1,-1,incongruent,30,1,2.698942182071483
34,R,L,0,12.723,1.5,1,7.112,NA,NA,G030N13,2,-1,1,incongruent,30,1,2.5434113791605633
35,L,R,1,12.505,-1.5,2,10.872,0.022,2.07,G030N13,2,1,-1,incongruent,30,1,2.5261285643295825
36,R,L,0,6.989,0.9,1,7.824,-1.97,-1.89,G030N13,2,-1,1,incongruent,30,1,1.9443374844949919
37,L,N,1,8.599,-0.9,NA,7.854,1.05,1.22,G030N13,2,1,0,neutral,30,1,2.1516459174287594
38,R,N,0,14.443,1.5,NA,9.504,0.457,-0.904,G030N13,2,-1,0,neutral,30,1,2.67020986811903
39,R,L,1,16.075,1.8,3,11.472,-2.23,-2.58,G030N13,2,-1,1,incongruent,30,0,2.777265270123683
40,R,R,0,7.318,0.9,2,8.496,-3.11,-0.383,G030N13,2,-1,-1,congruent,30,1,1.990337066597015
41,L,R,1,7.755,-0.9,1,6.672,3.44,1.46,G030N13,2,1,-1,incongruent,30,1,2.0483377966285023
42,L,L,1,13.582,-1.5,3,9.744,0.788,1.49,G030N13,2,1,1,congruent,30,1,2.6087453866915995
43,L,R,1,12.474,-1.5,2,7.008,3.05,2.09,G030N13,2,1,-1,incongruent,30,1,2.523646478103931
44,L,L,1,12.239,-1.5,2,6.384,3.83,2.55,G030N13,2,1,1,congruent,30,1,2.5046275744002013
45,L,R,1,9.021,-0.9,1,9.48,1.06,1.18,G030N13,2,1,-1,incongruent,30,1,2.199555192674502
46,R,R,0,6.114,0.9,2,7.272,-4.49,-0.558,G030N13,2,-1,-1,congruent,30,1,1.8105812234686427
47,R,R,0,11.482,1.2,3,8.328,-4.54,-3.37,G030N13,2,-1,-1,congruent,30,1,2.440780591745445
48,R,L,0,10.45,1.2,2,10.848,-1.95,-1.78,G030N13,2,-1,1,incongruent,30,1,2.34660197841082
49,R,L,0,10.794,1.2,2,8.472,-2.74,-2.51,G030N13,2,-1,1,incongruent,30,1,2.3789904241964512
0,R,R,0,7.349,0.9,2,7.744,2.77,-2.76,G030N13,2,-1,-1,congruent,30,1,1.9945642495467342
1,R,N,0,7.083,0.9,NA,8.448,-0.896,-1.11,G030N13,2,-1,0,neutral,30,1,1.9576975467714857
2,R,L,0,6.786,0.9,1,7.436,-2.87,-2.92,G030N13,2,-1,1,incongruent,30,1,1.9148616663620384
3,R,L,0,7.489,0.9,1,9.372,-3.63,-2.02,G030N13,2,-1,1,incongruent,30,1,2.01343527726723
4,R,R,0,6.677,0.9,2,8.128,-2.97,-2.55,G030N13,2,-1,-1,congruent,30,1,1.8986687848757318
5,R,L,0,9.529,1.2,1,8.544,-2.54,-1.19,G030N13,2,-1,1,incongruent,30,1,2.254339780366051
6,R,R,0,7.224,0.9,2,9.472,-3.76,-1.08,G030N13,2,-1,-1,congruent,30,1,1.9774088161146843
7,L,R,1,7.661,-0.9,1,7.552,3.39,-0.004,G030N13,2,1,-1,incongruent,30,1,2.036142523534684
8,L,R,1,7.489,-0.9,1,6.72,2.19,1.04,G030N13,2,1,-1,incongruent,30,1,2.01343527726723
9,R,R,0,8.302,0.9,2,8.832,-5.08,-2.07,G030N13,2,-1,-1,congruent,30,1,2.116496449630847
10,L,R,1,12.098,-1.5,2,8.768,2.18,1.62,G030N13,2,1,-1,incongruent,30,1,2.4930401496847225
11,L,N,1,6.661,-0.9,NA,7.904,5.26,0.413,G030N13,2,1,0,neutral,30,1,1.8962696234310423
12,L,R,1,12.63,-1.5,2,8.864,1.49,2.26,G030N13,2,1,-1,incongruent,30,1,2.5360749363624
13,L,R,1,10.637,-1.2,1,9.216,0.403,0.43,G030N13,2,1,-1,incongruent,30,1,2.364338489269528
14,R,R,0,7.458,0.9,2,8.096,-4.28,-1.07,G030N13,2,-1,-1,congruent,30,1,2.009287281756629
15,L,N,1,8.27,-0.9,NA,7.36,3.38,1.24,G030N13,2,1,0,neutral,30,1,2.1126345090356
16,L,L,1,10.403,-1.2,2,7.776,0.39,0.439,G030N13,2,1,1,congruent,30,1,2.3420942260887583
17,L,L,1,10.638,-1.2,3,7.452,2.97,2.9,G030N13,2,1,1,congruent,30,1,2.3644324963201258
18,L,L,1,10.232,-1.2,2,5.148,1.47,1.4,G030N13,2,1,1,congruent,30,1,2.3255200642765415
19,L,R,1,11.716,-1.2,2,7.2,2.91,3.8,G030N13,2,1,-1,incongruent,30,1,2.460955428965487
20,R,R,0,8.88,0.9,2,8.604,-0.436,-2.41,G030N13,2,-1,-1,congruent,30,1,2.1838015570040787
21,L,N,1,12.958,-1.5,NA,7.452,3.54,3.2,G030N13,2,1,0,neutral,30,1,2.5617133580277653
22,R,N,0,10.95,1.2,NA,9.036,-2.7,-1.73,G030N13,2,-1,0,neutral,30,1,2.3933394562625097
23,R,L,0,11.934,1.2,2,8.172,-0.79,-0.748,G030N13,2,-1,1,incongruent,30,1,2.47939146909989
24,R,N,0,10.419,1.2,NA,6.336,-2.67,-2.96,G030N13,2,-1,0,neutral,30,1,2.3436310624300467
25,L,N,1,13.52,-1.5,NA,9.252,1.55,2.31,G030N13,2,1,0,neutral,30,1,2.604170070614818
26,R,N,0,11.403,1.2,NA,8.784,-2,-2.45,G030N13,2,-1,0,neutral,30,1,2.4338764786752214
27,R,R,0,7.379,0.9,3,7.2,-0.316,0.261,G030N13,2,-1,-1,congruent,30,1,1.9986381280762295
28,L,R,1,12.379,-1.5,1,8.964,5.2,4.2,G030N13,2,1,-1,incongruent,30,1,2.5160014885496733
29,R,R,0,10.684,1.2,2,5.112,-3.34,-3.01,G030N13,2,-1,-1,congruent,30,1,2.368747295247714
30,L,L,1,10.169,-1.2,3,5.652,5.8,4.79,G030N13,2,1,1,congruent,30,1,2.3193438768090004
31,R,L,0,10.372,1.2,1,8.64,-1.42,-0.983,G030N13,2,-1,1,incongruent,30,1,2.339109867676418
32,L,R,1,11.669,-1.2,3,8.208,0.431,0.931,G030N13,2,1,-1,incongruent,30,1,2.4569357528239704
33,R,N,0,9.981,1.2,NA,5.724,-1.82,-3.2,G030N13,2,-1,0,neutral,30,1,2.3006832857044492
34,L,L,1,8.723,-0.9,2,4.536,5.28,3.56,G030N13,2,1,1,congruent,30,1,2.1659632154510815
35,R,L,0,10.638,1.2,2,7.308,-3.6,-4.08,G030N13,2,-1,1,incongruent,30,1,2.3644324963201258
36,R,L,0,10.872,1.2,2,7.452,-2.36,-2.63,G030N13,2,-1,1,incongruent,30,1,2.386190676848843
37,L,N,1,11.247,-1.2,NA,8.172,0.464,0.29,G030N13,2,1,0,neutral,30,1,2.4201014264218847
38,L,L,1,8.52,-0.9,3,5.976,2.93,2,G030N13,2,1,1,congruent,30,1,2.1424163408412245
39,R,L,0,12.927,1.5,3,7.92,-1.95,-1.04,G030N13,2,-1,1,incongruent,30,1,2.5593181473018105
40,L,L,1,14.348,-1.5,3,7.236,2,3.65,G030N13,2,1,1,congruent,30,1,2.6636105596700363
41,L,R,1,11.966,-1.2,2,10.476,2.26,3.68,G030N13,2,1,-1,incongruent,30,1,2.48206929496784
42,L,R,1,9.997,-1.2,2,8.064,3.5,2.12,G030N13,2,1,-1,incongruent,30,1,2.302285047985044
43,R,R,0,9.091,1.2,2,9.36,-2.81,-0.324,G030N13,2,-1,-1,congruent,30,1,2.207284913139721
44,L,L,1,8.786,-0.9,3,6.408,3.24,-0.96,G030N13,2,1,1,congruent,30,1,2.1731595455535877
45,R,L,0,9.684,1.2,1,8.964,-1.41,-1.64,G030N13,2,-1,1,incongruent,30,1,2.270475039075812
46,R,R,0,13.082,1.5,2,6.912,-2.2,-2.49,G030N13,2,-1,-1,congruent,30,1,2.571237239539021
47,L,L,1,10.434,-1.2,2,6.228,3.78,3.8,G030N13,2,1,1,congruent,30,1,2.345069704600201
48,R,L,0,13.879,1.5,2,7.668,-3.6,-3.84,G030N13,2,-1,1,incongruent,30,1,2.630376906373703
49,L,L,1,10.325,-1.2,2,5.508,4.1,2.7,G030N13,2,1,1,congruent,30,1,2.3345681388470965
3,R,R,0,11.2,1.2,2,9.624,-2.61,-1.4,G030N13,2,-1,-1,congruent,30,1,2.4159137783010487
0,R,R,0,2.968,0.3,2,7.52,NA,NA,G031N13,3,-1,-1,congruent,31,1,1.087888325305134
1,L,N,1,4.404,-0.6,NA,11.648,0.168,0.516,G031N13,3,1,0,neutral,31,1,1.4825132188604335
2,L,L,1,3.966,-0.6,3,7.672,1.88,1.65,G031N13,3,1,1,congruent,31,1,1.3777580300976042
3,R,R,0,2.859,0.3,2,6.048,-1.66,-0.803,G031N13,3,-1,-1,congruent,31,1,1.0504719133401748
4,L,N,1,7.115,-0.9,NA,7.756,4.08,1.84,G031N13,3,1,0,neutral,31,1,1.9622052315418157
5,R,L,0,7.286,0.9,3,9.072,-1.21,-1.48,G031N13,3,-1,1,incongruent,31,1,1.985954698586372
6,L,L,1,3,-0.3,2,9.24,3.86,1.08,G031N13,3,1,1,congruent,31,1,1.0986122886681098
7,R,L,0,9.637,1.2,2,NA,NA,NA,G031N13,3,-1,1,incongruent,31,1,2.2656098568691503
8,R,N,0,11.794,1.2,NA,9.632,0.401,-1.21,G031N13,3,-1,0,neutral,31,1,2.4675909275783123
9,R,R,0,4.076,0.6,1,9.38,-2.8,0.286,G031N13,3,-1,-1,congruent,31,1,1.4051161153604783
10,R,L,0,8.27,0.9,2,7.476,-0.351,0.062,G031N13,3,-1,1,incongruent,31,1,2.1126345090356
11,R,L,0,8.005,0.9,3,6.692,-2.12,0.886,G031N13,3,-1,1,incongruent,31,1,2.080066346448678
12,L,R,1,5.669,-0.6,1,8.288,0.762,2.1,G031N13,3,1,-1,incongruent,31,1,1.7350127353421665
13,L,R,1,7.333,-0.9,2,4.872,2.55,-1.56,G031N13,3,1,-1,incongruent,31,1,1.9923847091116624
14,L,R,1,5.295,-0.6,2,5.656,2.94,-0.464,G031N13,3,1,-1,incongruent,31,1,1.6667629790533698
15,L,L,1,5.825,-0.6,3,5.18,1.25,0.196,G031N13,3,1,1,congruent,31,1,1.7621589994517644
16,L,L,1,5.483,-0.6,2,5.18,2.71,1.87,G031N13,3,1,1,congruent,31,1,1.7016523964219112
17,R,R,1,23.526,2.4,3,8.484,-3.2,NA,G031N13,3,-1,-1,congruent,31,0,3.1581061925382494
18,R,R,0,6.849,0.9,3,7.336,NA,NA,G031N13,3,-1,-1,congruent,31,1,1.9241026562157681
19,L,L,1,5.544,-0.6,2,5.292,1.85,0.399,G031N13,3,1,1,congruent,31,1,1.712716261887602
20,L,L,1,8.302,-0.9,3,5.46,5.33,4.44,G031N13,3,1,1,congruent,31,1,2.116496449630847
21,L,L,1,7.005,-0.9,3,6.72,3.82,0.338,G031N13,3,1,1,congruent,31,1,1.9466241797889703
22,L,R,1,7.193,-0.9,2,7.308,6.81,-0.437,G031N13,3,1,-1,incongruent,31,1,1.973108330885219
23,R,L,0,13.208,1.5,3,7.868,-0.613,0.574,G031N13,3,-1,1,incongruent,31,1,2.580822706617827
24,L,L,1,4.372,-0.6,3,6.048,1.52,-0.134,G031N13,3,1,1,congruent,31,1,1.4752205703142922
25,R,L,0,3.622,0.6,2,6.384,-2.9,1.54,G031N13,3,-1,1,incongruent,31,1,1.2870263594612217
26,L,L,1,5.061,-0.6,3,4.676,5.99,0.924,G031N13,3,1,1,congruent,31,1,1.621564092231941
27,L,R,1,8.208,-0.9,1,5.992,2.72,1.7,G031N13,3,1,-1,incongruent,31,1,2.1051092884284137
28,R,N,0,9.036,0.9,NA,10.024,-1.31,0.136,G031N13,3,-1,0,neutral,31,1,2.2012165986057566
29,L,R,1,6.833,-0.9,2,5.32,3.93,0.163,G031N13,3,1,-1,incongruent,31,1,1.9217638157986412
30,R,R,0,4.951,0.6,2,7,-3.74,0.657,G031N13,3,-1,-1,congruent,31,1,1.599589576379286
31,L,N,1,4.528,-0.6,NA,6.356,5.28,0.917,G031N13,3,1,0,neutral,31,1,1.5102803409008818
32,R,L,0,14.55,1.5,2,8.456,-1.53,-1.24,G031N13,3,-1,1,incongruent,31,1,2.6775909936175015
33,R,N,0,8.162,0.9,NA,8.54,NA,NA,G031N13,3,-1,0,neutral,31,1,2.0994892369836142
34,R,R,0,9.841,1.2,2,7.392,-0.677,-0.839,G031N13,3,-1,-1,congruent,31,1,2.2865573319168484
35,R,N,0,11.903,1.2,NA,5.824,-2.51,-2.47,G031N13,3,-1,0,neutral,31,1,2.476790469185743
36,R,L,0,9.544,1.2,3,9.576,1.08,-0.113,G031N13,3,-1,1,incongruent,31,1,2.2559126847956152
37,L,R,1,7.989,-0.9,2,8.712,1.2,1.4,G031N13,3,1,-1,incongruent,31,1,2.078065595499905
38,R,R,0,7.63,0.9,1,7.728,-2.49,-1.81,G031N13,3,-1,-1,congruent,31,1,2.0320878452963655
39,L,L,1,3.67,-0.6,2,NA,NA,NA,G031N13,3,1,1,congruent,31,1,1.3001916620664788
40,R,R,0,5.482,0.6,2,8.932,-0.328,-0.051,G031N13,3,-1,-1,congruent,31,1,1.701469997880594
41,L,N,1,8.114,-0.9,NA,5.124,2.74,1.86,G031N13,3,1,0,neutral,31,1,2.0935909647842554
42,L,R,1,11.388,-1.2,3,7.056,0.379,0.38,G031N13,3,1,-1,incongruent,31,1,2.4325601694157912
43,R,R,0,10.56,1.2,2,9.66,-0.943,1.31,G031N13,3,-1,-1,congruent,31,1,2.3570732782781154
44,R,L,0,8.364,0.9,3,NA,NA,NA,G031N13,3,-1,1,incongruent,31,1,2.123936781566387
45,L,R,1,10.387,-1.2,3,10.248,2.56,0.058,G031N13,3,1,-1,incongruent,31,1,2.3405550242456745
46,R,L,1,7.677,0.9,3,7.504,-3.28,-2.87,G031N13,3,-1,1,incongruent,31,0,2.0382288458457616
47,L,R,1,11.996,-1.2,3,6.804,3.06,-0.357,G031N13,3,1,-1,incongruent,31,1,2.4845732608867626
48,L,N,1,4.012,-0.6,NA,7.7,1.17,0.053,G031N13,3,1,0,neutral,31,1,1.389289870099689
49,R,N,0,8.88,0.9,NA,5.264,0.494,0.689,G031N13,3,-1,0,neutral,31,1,2.1838015570040787
0,L,N,1,6.24,-0.9,NA,6.656,7.04,1.15,G031N13,3,1,0,neutral,31,1,1.8309801823813363
1,R,L,0,4.607,0.6,2,3.708,-0.784,0.586,G031N13,3,-1,1,incongruent,31,1,1.52757688595378
2,R,L,0,9.591,1.2,1,9.972,NA,NA,G031N13,3,-1,1,incongruent,31,1,2.260825158745814
3,L,L,1,5.842,-0.6,2,NA,NA,NA,G031N13,3,1,1,congruent,31,1,1.7650732039655492
4,L,N,1,6.348,-0.9,NA,7.344,5.45,0.085,G031N13,3,1,0,neutral,31,1,1.8481398026641627
5,R,N,0,11.919,1.2,NA,7.416,-0.736,-0.736,G031N13,3,-1,0,neutral,31,1,2.4781337655005715
6,L,L,1,5.842,-0.6,2,5.472,3.16,0.669,G031N13,3,1,1,congruent,31,1,1.7650732039655492
7,L,N,1,11.466,-1.2,NA,6.228,1.87,2.08,G031N13,3,1,0,neutral,31,1,2.439386134486191
8,L,R,1,9.654,-1.2,2,7.056,5.5,3.19,G031N13,3,1,-1,incongruent,31,1,2.2673723372383012
9,R,N,1,12.394,1.5,NA,6.588,-2.73,-3.05,G031N13,3,-1,0,neutral,31,0,2.517212484539916
10,L,L,1,9.716,-1.2,3,NA,NA,NA,G031N13,3,1,1,congruent,31,1,2.273774011139926
11,R,R,0,5.576,0.6,2,NA,NA,NA,G031N13,3,-1,-1,congruent,31,1,1.7184716734582226
12,R,L,0,4.716,0.6,3,5.328,0.682,1.38,G031N13,3,-1,1,incongruent,31,1,1.5509609826751245
13,L,N,1,5.841,-0.6,NA,2.7,7.29,2.15,G031N13,3,1,0,neutral,31,1,1.7649020150581725
14,L,R,0,10.372,-1.2,3,5.148,4.18,3.67,G031N13,3,1,-1,incongruent,31,0,2.339109867676418
15,R,L,0,10.497,1.2,2,6.336,-1.9,-1.47,G031N13,3,-1,1,incongruent,31,1,2.351089502053661
16,L,R,1,6.349,-0.9,2,6.264,1.6,-1.61,G031N13,3,1,-1,incongruent,31,1,1.8482973201883128
17,L,L,0,7.923,-0.9,2,5.868,3.62,2.19,G031N13,3,1,1,congruent,31,0,2.069769921983105
18,R,R,1,8.129,0.9,2,5.436,0.011,-0.319,G031N13,3,-1,-1,congruent,31,0,2.0954379147644353
19,R,L,1,7.38,0.9,3,10.296,0.195,-0.683,G031N13,3,-1,1,incongruent,31,0,1.998773638612381
20,L,L,1,6.052,-0.9,2,5.904,0.962,1.11,G031N13,3,1,1,congruent,31,1,1.8003887959261093
21,L,R,1,13.66,-1.5,2,6.624,4.15,3.05,G031N13,3,1,-1,incongruent,31,1,2.614471854142644
22,L,L,1,6.505,-0.9,3,6.552,3.16,1.51,G031N13,3,1,1,congruent,31,1,1.8725711119644686
23,R,R,0,3.356,0.6,2,8.064,0.292,0.641,G031N13,3,-1,-1,congruent,31,1,1.2107497886049596
24,L,R,1,16.949,-1.8,3,4.896,4.95,8.1,G031N13,3,1,-1,incongruent,31,1,2.8302088350359176
25,L,R,1,12.348,-1.5,2,8.1,2.97,2.25,G031N13,3,1,-1,incongruent,31,1,2.513494106639913
26,R,L,0,9.529,1.2,3,5.22,-0.82,-0.075,G031N13,3,-1,1,incongruent,31,1,2.254339780366051
27,R,R,0,4.936,0.6,3,4.824,-3.76,-0.544,G031N13,3,-1,-1,congruent,31,1,1.5965552866030868
28,R,L,0,10.966,1.2,2,7.668,0.304,0.195,G031N13,3,-1,1,incongruent,31,1,2.394799576981857
29,R,L,1,10.919,1.2,3,9.828,-0.378,-1.07,G031N13,3,-1,1,incongruent,31,0,2.390504391031929
30,L,N,1,9.747,-1.2,NA,4.212,-0.281,0.972,G031N13,3,1,0,neutral,31,1,2.276959545355073
31,R,L,1,14.552,1.5,3,NA,NA,NA,G031N13,3,-1,1,incongruent,31,0,2.6777284412158213
32,R,N,0,10.513,1.2,NA,8.748,-0.763,-0.819,G031N13,3,-1,0,neutral,31,1,2.3526125865936938
33,L,R,1,11.528,-1.2,2,6.156,3.61,3.5,G031N13,3,1,-1,incongruent,31,1,2.4447788586972212
34,R,R,0,9.857,1.2,2,8.532,-2.8,-2.56,G031N13,3,-1,-1,congruent,31,1,2.288181862683302
35,L,L,1,5.622,-0.6,3,5.616,5.15,1.37,G031N13,3,1,1,congruent,31,1,1.7266874724843402
36,R,R,0,7.958,0.9,2,8.424,-1.42,-0.302,G031N13,3,-1,-1,congruent,31,1,2.074177712004737
37,R,R,0,3.841,0.6,3,3.744,-3.55,0.437,G031N13,3,-1,-1,congruent,31,1,1.3457327493637679
38,L,L,1,3.903,-0.6,2,NA,NA,NA,G031N13,3,1,1,congruent,31,1,1.3617454881984778
39,L,R,1,6.098,-0.9,2,NA,NA,NA,G031N13,3,1,-1,incongruent,31,1,1.807960848566063
40,R,R,0,8.02,0.9,2,3.708,-8.58,-2.05,G031N13,3,-1,-1,congruent,31,1,2.081938421878423
41,R,N,1,6.958,0.9,NA,9,-2.3,-2.45,G031N13,3,-1,0,neutral,31,0,1.9398920767297503
42,R,N,0,7.255,0.9,NA,5.832,-4.8,-0.807,G031N13,3,-1,0,neutral,31,1,1.981690886336151
43,R,L,0,9.466,1.2,3,7.848,-0.222,0.626,G031N13,3,-1,1,incongruent,31,1,2.247706431484056
44,R,R,0,7.567,0.9,2,6.48,-0.982,0.085,G031N13,3,-1,-1,congruent,31,1,2.0237966877123847
45,R,R,0,10.685,1.2,3,6.66,-0.403,-1.07,G031N13,3,-1,-1,congruent,31,1,2.368840888771111
46,L,L,1,6.911,-0.9,2,NA,NA,NA,G031N13,3,1,1,congruent,31,1,1.9331143451092572
47,L,R,1,7.615,-0.9,1,4.932,7.39,1.87,G031N13,3,1,-1,incongruent,31,1,2.0301199863471253
48,L,R,1,15.005,-1.5,3,7.632,3.24,6.38,G031N13,3,1,-1,incongruent,31,1,2.7083834788923307
49,L,L,1,5.622,-0.6,2,6.228,6.16,0.825,G031N13,3,1,1,congruent,31,1,1.7266874724843402
0,R,N,0,10.075,1.2,NA,3.96,-2.55,-3.82,G040N13,4,-1,0,neutral,40,1,2.3100571078327468
1,L,L,1,9.544,-1.2,1,6.48,-0.348,-0.342,G040N13,4,1,1,congruent,40,1,2.2559126847956152
2,L,R,1,13.223,-1.5,1,10.048,-0.891,0.312,G040N13,4,1,-1,incongruent,40,1,2.581957737574686
3,L,L,1,11.513,-1.2,1,8.04,-1.05,-1.89,G040N13,4,1,1,congruent,40,1,2.443476831691527
4,L,R,0,28.947,-3,2,11.48,0.243,6.53,G040N13,4,1,-1,incongruent,40,0,3.3654665717063565
5,R,R,0,4.404,0.6,2,NA,NA,NA,G040N13,4,-1,-1,congruent,40,1,1.4825132188604335
6,R,R,0,11.919,1.2,2,4.92,-1.21,-2.61,G040N13,4,-1,-1,congruent,40,1,2.4781337655005715
7,R,L,0,12.644,1.5,2,7.4,-1.14,-1.08,G040N13,4,-1,1,incongruent,40,1,2.537182794353371
8,R,R,0,5.842,0.6,2,6.12,-1.23,-0.668,G040N13,4,-1,-1,congruent,40,1,1.7650732039655492
9,R,L,0,9.794,1.2,2,5.76,-2.36,-0.608,G040N13,4,-1,1,incongruent,40,1,2.2817699532801257
10,L,R,1,17.137,-1.8,2,4.8,0.79,0.63,G040N13,4,1,-1,incongruent,40,1,2.841239868678712
11,R,N,0,10.606,1.2,NA,5.496,-1.54,-1.35,G040N13,4,-1,0,neutral,40,1,2.3614198787149383
12,R,L,0,11.028,1.2,2,7.44,-2.31,-1.72,G040N13,4,-1,1,incongruent,40,1,2.4004374931615504
13,L,R,1,10.559,-1.2,2,4.128,0.053,0.101,G040N13,4,1,-1,incongruent,40,1,2.3569785768243774
14,L,L,1,13.207,-1.5,2,3.696,-0.417,0.354,G040N13,4,1,1,congruent,40,1,2.5807469920616675
15,R,R,0,6.396,0.9,2,5.472,-2.51,-0.637,G040N13,4,-1,-1,congruent,40,1,1.8556727949717078
16,L,L,1,10.794,-1.2,2,5.28,1.92,1.66,G040N13,4,1,1,congruent,40,1,2.3789904241964512
17,R,L,0,8.255,0.9,2,6.048,-0.38,-0.634,G040N13,4,-1,1,incongruent,40,1,2.1108190773720916
18,R,R,0,9.091,1.2,2,5.328,-0.598,-2.148,G040N13,4,-1,-1,congruent,40,1,2.207284913139721
19,L,N,1,8.567,-0.9,NA,5.208,0.875,1.05,G040N13,4,1,0,neutral,40,1,2.147917612981907
20,R,R,0,5.981,0.6,2,4.544,-0.649,-0.879,G040N13,4,-1,-1,congruent,40,1,1.78858777806242
21,R,N,0,9.716,1.2,NA,3.136,-4.16,-1.14,G040N13,4,-1,0,neutral,40,1,2.273774011139926
22,R,N,0,9.294,1.2,NA,3.456,-0.473,-1.787,G040N13,4,-1,0,neutral,40,1,2.2293690306627867
23,L,N,1,7.942,-0.9,NA,5.696,0.751,0.134,G040N13,4,1,0,neutral,40,1,2.0721651327090598
24,L,R,1,11.294,-1.2,2,6.58,-0.109,-0.281,G040N13,4,1,-1,incongruent,40,1,2.424271611250645
25,R,L,0,9.715,1.2,2,8.708,-2.04,-0.957,G040N13,4,-1,1,incongruent,40,1,2.2736710828294036
26,L,R,0,20.207,-2.1,2,6.984,1.84,2.95,G040N13,4,1,-1,incongruent,40,0,3.006029079031359
27,L,L,1,9.888,-1.2,2,3.168,2.38,2.29,G040N13,4,1,1,congruent,40,1,2.291321900715335
28,R,R,0,35.533,3.6,2,NA,-0.089,-1.22,G040N13,4,-1,-1,congruent,40,1,3.5704618421565946
29,R,R,0,11.778,1.2,2,6.084,-0.404,-0.337,G040N13,4,-1,-1,congruent,40,1,2.466233384522379
30,R,L,0,14.521,1.5,2,9.054,-0.602,-0.602,G040N13,4,-1,1,incongruent,40,1,2.6755958775486004
31,L,L,1,14.849,-1.5,2,5.976,0.292,0.022,G040N13,4,1,1,congruent,40,1,2.6979325229139244
32,L,R,0,23.277,-2.4,2,NA,-1.56,3.25,G040N13,4,1,-1,incongruent,40,0,3.147465748579922
33,R,R,0,8.176,0.9,2,4.968,-0.827,-0.256,G040N13,4,-1,-1,congruent,40,1,2.1012030334613487
34,L,L,1,11.935,-1.2,2,8.028,0.846,-0.155,G040N13,4,1,1,congruent,40,1,2.4794752597907936
35,L,L,1,10.247,-1.2,2,8.712,-0.531,-0.621,G040N13,4,1,1,congruent,40,1,2.326984979817581
36,R,N,0,14.332,1.5,NA,5.364,-0.696,-0.299,G040N13,4,-1,0,neutral,40,1,2.6624947994427073
37,L,N,1,10.778,-1.2,NA,5.904,0.377,0.374,G040N13,4,1,0,neutral,40,1,2.377507019511305
38,L,R,0,9.005,-0.9,2,7.956,0.346,2.31,G040N13,4,1,-1,incongruent,40,0,2.1977799786279193
39,L,L,1,11.825,-1.2,2,7.092,2.11,2.65,G040N13,4,1,1,congruent,40,1,2.470215934377997
40,R,L,1,20.597,2.1,2,NA,-0.983,-6.54,G040N13,4,-1,1,incongruent,40,0,3.0251454341223405
41,L,N,1,13.707,-1.5,NA,6.804,0.884,3.35,G040N13,4,1,0,neutral,40,1,2.6179066512492444
42,R,L,0,17.418,1.8,2,9.216,-3.37,-4.58,G040N13,4,-1,1,incongruent,40,1,2.857504154270548
43,R,L,0,7.911,0.9,2,7.128,-2.09,-0.5,G040N13,4,-1,1,incongruent,40,1,2.068254196039259
44,L,L,1,8.02,-0.9,2,7.956,1.2,-0.721,G040N13,4,1,1,congruent,40,1,2.081938421878423
45,R,L,0,11.028,1.2,2,6.948,-1.26,-0.791,G040N13,4,-1,1,incongruent,40,1,2.4004374931615504
46,L,R,1,20.02,-2.1,2,7.416,0.527,2.8,G040N13,4,1,-1,incongruent,40,1,2.9967317738870745
47,R,R,0,9.591,1.2,2,6.156,-3.51,-3.69,G040N13,4,-1,-1,congruent,40,1,2.260825158745814
48,L,R,1,9.419,-1.2,2,6.516,2.28,1.25,G040N13,4,1,-1,incongruent,40,1,2.24272892584068
49,L,N,1,13.988,-1.5,NA,7.2,-0.497,-0.43,G040N13,4,1,0,neutral,40,1,2.6381998192011293
0,L,L,1,10.887,-1.2,2,4.068,0.073,1.39,G040N13,4,1,1,congruent,40,1,2.387569416899043
1,L,N,1,19.848,-2.1,NA,6.804,0.163,3.09,G040N13,4,1,0,neutral,40,1,2.9881032463894996
2,R,L,0,10.653,1.2,2,6.984,-0.639,-0.714,G040N13,4,-1,1,incongruent,40,1,2.3658415426290604
3,L,R,0,6.536,-0.9,2,6.048,-0.149,0.494,G040N13,4,1,-1,incongruent,40,0,1.8773253575577018
4,L,R,1,11.605,-1.2,2,6.948,1.25,-0.741,G040N13,4,1,-1,incongruent,40,1,2.4514360397264006
5,R,R,0,10.824,1.2,2,6.48,-0.589,-0.035,G040N13,4,-1,-1,congruent,40,1,2.381765890868487
6,L,L,1,11.809,-1.2,2,7.416,1.59,1.82,G040N13,4,1,1,congruent,40,1,2.4688619526191444
7,L,R,1,13.91,-1.5,2,5.216,0.479,0.962,G040N13,4,1,-1,incongruent,40,1,2.6326080059353516
8,R,N,0,10.622,1.2,NA,7.904,-2.21,-2.69,G040N13,4,-1,0,neutral,40,1,2.3629273220002074
9,L,R,1,10.153,-1.2,2,7.36,2.19,0.802,G040N13,4,1,-1,incongruent,40,1,2.3177692283190856
10,L,N,1,10.591,-1.2,NA,4.384,0.109,-0.703,G040N13,4,1,0,neutral,40,1,2.360004583861532
11,R,N,0,10.591,1.2,NA,NA,-0.394,-0.666,G040N13,4,-1,0,neutral,40,1,2.360004583861532
12,L,N,1,11.466,-1.2,NA,7.392,0.714,0.196,G040N13,4,1,0,neutral,40,1,2.439386134486191
13,R,R,0,11.621,1.2,2,8.224,-1.15,-0.228,G040N13,4,-1,-1,congruent,40,1,2.4528138062407367
14,L,L,1,11.653,-1.2,2,NA,NA,NA,G040N13,4,1,1,congruent,40,1,2.455563657591126
15,R,R,0,11.309,1.2,2,NA,NA,NA,G040N13,4,-1,-1,congruent,40,1,2.42559886888919
16,L,L,1,11.934,-1.2,2,7.584,4.68,4.21,G040N13,4,1,1,congruent,40,1,2.47939146909989
17,R,L,1,5.481,0.6,2,7.168,-1.13,-0.56,G040N13,4,-1,1,incongruent,40,0,1.7012875660639792
18,L,L,1,25.488,-2.7,2,6.624,0.654,0.085,G040N13,4,1,1,congruent,40,1,3.2382077531676927
19,R,L,0,16.308,1.8,2,NA,NA,NA,G040N13,4,-1,1,incongruent,40,1,2.791655784957007
20,R,N,0,11.982,1.2,NA,NA,-0.321,-0.496,G040N13,4,-1,0,neutral,40,1,2.483405523661733
21,R,R,0,10.043,1.2,2,6.176,-0.417,-0.68,G040N13,4,-1,-1,congruent,40,1,2.306875874411202
22,R,R,0,16.793,1.8,2,7.008,-2.4,-0.661,G040N13,4,-1,-1,congruent,40,1,2.8209621329128707
23,L,R,1,22.823,-2.4,2,6.72,1.13,4.72,G040N13,4,1,-1,incongruent,40,1,3.12776879942174
24,R,R,0,10.388,1.2,2,NA,NA,NA,G040N13,4,-1,-1,congruent,40,1,2.340651293800502
25,R,L,1,10.435,1.2,2,6.112,-2.33,-1.81,G040N13,4,-1,1,incongruent,40,0,2.3451655405291643
26,R,N,0,11.216,1.2,NA,NA,-0.274,-0.523,G040N13,4,-1,0,neutral,40,1,2.4173413302922344
27,R,L,0,10.559,1.2,2,6.848,0.248,-0.316,G040N13,4,-1,1,incongruent,40,1,2.3569785768243774
28,L,R,1,17.074,-1.8,2,8.192,-0.006,0.004,G040N13,4,1,-1,incongruent,40,1,2.8375568385881147
29,L,L,1,10.2,-1.2,2,6.976,-0.878,-0.558,G040N13,4,1,1,congruent,40,1,2.3223877202902252
30,L,R,1,13.786,-1.5,2,NA,NA,NA,G040N13,4,1,-1,incongruent,40,1,2.62365358446346
31,L,L,1,8.786,-0.9,2,5.952,-0.291,0.15,G040N13,4,1,1,congruent,40,1,2.1731595455535877
32,R,R,0,10.981,1.2,2,NA,NA,NA,G040N13,4,-1,-1,congruent,40,1,2.396166506615576
33,R,N,0,16.73,1.8,NA,6.912,-0.797,0.287,G040N13,4,-1,0,neutral,40,1,2.8172035149987327
34,R,R,0,14.958,1.5,2,6.496,0.661,0.548,G040N13,4,-1,-1,congruent,40,1,2.705246273769476
35,R,L,0,17.996,1.8,2,6.048,1.97,-0.846,G040N13,4,-1,1,incongruent,40,1,2.890149510978926
36,R,L,0,17.388,1.8,2,5.824,-1.48,-0.124,G040N13,4,-1,1,incongruent,40,1,2.855780313126546
37,L,L,1,8.458,-0.9,2,4.8,-0.943,1.12,G040N13,4,1,1,congruent,40,1,2.135112739050297
38,L,N,1,11.607,-1.2,NA,5.856,1.12,1.37,G040N13,4,1,0,neutral,40,1,2.4516083643864857
39,R,L,1,12.989,1.5,2,7.52,-0.117,2.63,G040N13,4,-1,1,incongruent,40,0,2.564102845425147
40,R,L,0,14.895,1.5,2,NA,NA,NA,G040N13,4,-1,1,incongruent,40,1,2.7010255861652457
41,L,L,1,8.879,-0.9,2,7.552,2.44,-1.29,G040N13,4,1,1,congruent,40,1,2.1836889380501896
42,L,L,1,15.435,-1.8,2,NA,1.3,3.55,G040N13,4,1,1,congruent,40,1,2.7366376579541227
43,L,N,1,14.27,-1.5,NA,6.56,0.796,1.25,G040N13,4,1,0,neutral,40,1,2.658159431488745
44,L,R,1,17.965,-1.8,2,8.032,-1.23,4.83,G040N13,4,1,-1,incongruent,40,1,2.8884254205654822
45,R,R,0,10.934,1.2,2,NA,NA,NA,G040N13,4,-1,-1,congruent,40,1,2.3918772004728073
46,L,R,0,2.563,-0.3,2,2.304,0.422,0.767,G040N13,4,1,-1,incongruent,40,0,0.9411784473819341
47,R,L,0,12.691,1.5,2,NA,NA,NA,G040N13,4,-1,1,incongruent,40,1,2.5408930808280275
48,R,R,0,11.325,1.2,2,NA,NA,NA,G040N13,4,-1,-1,congruent,40,1,2.4270126713690976
49,L,R,1,13.723,-1.5,2,5.408,1.76,0.073,G040N13,4,1,-1,incongruent,40,1,2.6190732572874964
0,L,R,0,8.474,-0.9,2,3.864,0.318,1.66,G049N13,5,1,-1,incongruent,49,0,2.1370026522043677
1,R,R,0,11.201,1.2,1,NA,-1.88,-1.71,G049N13,5,-1,-1,congruent,49,1,2.4160030600296025
2,L,N,1,11.997,-1.2,NA,5.012,1.75,1.21,G049N13,5,1,0,neutral,49,1,2.484656618532791
3,R,R,0,5.436,0.6,1,9.38,-2.25,-0.632,G049N13,5,-1,-1,congruent,49,1,1.6930434962888972
4,L,R,1,12.583,-1.5,1,5.236,3.11,2.99,G049N13,5,1,-1,incongruent,49,1,2.5323466966098307
5,R,L,1,7.786,0.9,2,4.816,-2.48,-1.49,G049N13,5,-1,1,incongruent,49,0,2.052327249188264
6,L,R,0,0.234,-0.3,2,NA,NA,NA,G049N13,5,1,-1,incongruent,49,0,-1.4524341636244356
7,R,R,0,11.7,1.2,2,3.472,-2.27,-3.9,G049N13,5,-1,-1,congruent,49,1,2.4595888418037104
8,L,R,1,20.504,-2.1,2,5.124,1.33,6.75,G049N13,5,1,-1,incongruent,49,1,3.02061998906177
9,L,R,0,23.183,-2.4,2,6.86,3.72,10.3,G049N13,5,1,-1,incongruent,49,0,3.1434192514527566
10,R,N,1,18.613,2.1,NA,7.28,-2.36,-3.54,G049N13,5,-1,0,neutral,49,0,2.923860261316196
11,R,L,0,20.41,2.1,1,8.12,0.688,-7.89,G049N13,5,-1,1,incongruent,49,1,3.0160249768217535
12,L,L,1,15.497,-1.8,2,2.744,3.14,6.19,G049N13,5,1,1,congruent,49,1,2.740646456805198
13,R,R,0,12.239,1.5,3,NA,NA,NA,G049N13,5,-1,-1,congruent,49,1,2.5046275744002013
14,L,N,1,26.534,-2.7,NA,3.416,4.33,16.3,G049N13,5,1,0,neutral,49,1,3.278426929494725
15,L,L,1,20.16,-2.1,2,NA,NA,NA,G049N13,5,1,1,congruent,49,1,3.0037004432031678
16,R,R,0,20.457,2.1,2,3.416,-3.11,-11.8,G049N13,5,-1,-1,congruent,49,1,3.0183251222066256
17,L,L,0,27.761,-3,2,4.984,5.41,25.5,G049N13,5,1,1,congruent,49,0,3.323632158044544
18,R,L,1,29.699,3,2,7.448,-0.886,-15.5,G049N13,5,-1,1,incongruent,49,0,3.3911133752081355
19,R,L,0,25.222,2.7,1,7.98,-2.39,-13.2,G049N13,5,-1,1,incongruent,49,1,3.227716629533683
20,L,L,1,21.668,-2.4,2,4.368,4.95,16.3,G049N13,5,1,1,congruent,49,1,3.0758365177956524
21,R,R,0,14.879,1.5,3,NA,NA,NA,G049N13,5,-1,-1,congruent,49,1,2.6999508228455604
22,R,N,1,20.629,2.1,NA,7.812,-1.82,-8.84,G049N13,5,-1,0,neutral,49,0,3.0266978528108712
23,L,L,0,32.346,-3.3,2,7.84,4.85,22.3,G049N13,5,1,1,congruent,49,0,3.4764903656975865
24,R,R,0,15.121,1.8,3,6.048,-6.23,-8.36,G049N13,5,-1,-1,congruent,49,1,2.716084506130532
25,L,R,0,18.941,-2.1,3,8.204,0.193,1.53,G049N13,5,1,-1,incongruent,49,0,2.9413288846746046
26,R,R,0,30.879,3.3,2,5.46,-3.4,-19.9,G049N13,5,-1,-1,congruent,49,1,3.430076341212532
27,R,L,0,33.05,3.3,2,NA,-0.689,-17.2,G049N13,5,-1,1,incongruent,49,1,3.498021566297695
28,L,N,1,26.362,-2.7,NA,NA,NA,NA,G049N13,5,1,0,neutral,49,1,3.271923579290274
29,R,N,0,31.72,3.3,NA,4.676,-0.903,-19.9,G049N13,5,-1,0,neutral,49,1,3.456947396766647
30,L,R,0,17.653,-1.8,2,3.668,2.45,4.2,G049N13,5,1,-1,incongruent,49,0,2.870905740607146
31,R,L,0,38.611,3.9,2,NA,NA,NA,G049N13,5,-1,1,incongruent,49,1,3.653537209966645
32,L,R,0,36.088,-3.6,2,6.328,NA,19,G049N13,5,1,-1,incongruent,49,0,3.585960400106095
33,L,L,1,26.097,-2.7,2,2.912,4.15,19.8,G049N13,5,1,1,congruent,49,1,3.2618203651935134
34,L,R,1,41.477,-4.2,2,NA,NA,NA,G049N13,5,1,-1,incongruent,49,1,3.725139056734247
35,R,N,0,32.127,3.3,NA,10.276,0.315,-17.3,G049N13,5,-1,0,neutral,49,1,3.4696967980868476
36,R,L,1,38.065,3.9,3,7.336,-1.5,-18.4,G049N13,5,-1,1,incongruent,49,0,3.639295224758176
37,R,R,0,41.229,4.2,3,9.072,-3.76,-33.3,G049N13,5,-1,-1,congruent,49,1,3.7191418922408244
38,R,R,0,42.423,4.5,3,6.356,-2.37,-37,G049N13,5,-1,-1,congruent,49,1,3.747690667993749
39,R,L,1,36.424,3.9,3,7.812,-0.664,-19.8,G049N13,5,-1,1,incongruent,49,0,3.5952278980324808
40,L,L,1,28.183,-3,3,NA,NA,NA,G049N13,5,1,1,congruent,49,1,3.3387189592854245
41,L,R,0,32.986,-3.3,3,NA,NA,NA,G049N13,5,1,-1,incongruent,49,0,3.4960832290259605
42,L,L,1,26.66,-2.7,3,5.012,4.11,16.1,G049N13,5,1,1,congruent,49,1,3.2831643147505627
43,L,N,0,42.344,-4.5,NA,4.172,0.625,21.1,G049N13,5,1,0,neutral,49,0,3.7458267345556866
44,R,L,1,31.924,3.3,2,NA,NA,NA,G049N13,5,-1,1,incongruent,49,0,3.4633580780137625
45,L,L,0,32.906,-3.3,2,NA,NA,NA,G049N13,5,1,1,congruent,49,0,3.4936550119644583
46,R,L,0,38.095,3.9,1,NA,NA,NA,G049N13,5,-1,1,incongruent,49,1,3.640083039924973
47,L,L,0,35.228,-3.6,1,NA,NA,NA,G049N13,5,1,1,congruent,49,0,3.5618412209432133
48,L,N,1,41.056,-4.2,1,6.384,1.46,21.8,G049N13,5,1,0,neutral,49,1,3.7149369884332257
49,R,N,1,38.58,3.9,1,4.608,-0.78,-11,G049N13,5,-1,0,neutral,49,0,3.652734007477583
0,R,N,0,37.283,3.9,1,3.192,-0.571,-0.606,G049N13,5,-1,0,neutral,49,1,3.6185374586826886
1,L,L,1,38.455,-3.9,1,NA,NA,NA,G049N13,5,1,1,congruent,49,1,3.6494887265090172
2,L,L,1,26.737,-2.7,1,2.464,6.03,16.8,G049N13,5,1,1,congruent,49,1,3.286048373906415
3,R,R,0,21.293,2.4,1,5.376,-8.22,-16.9,G049N13,5,-1,-1,congruent,49,1,3.0583783802042617
4,R,L,0,29.713,3,1,NA,NA,NA,G049N13,5,-1,1,incongruent,49,1,3.3915846604790953
5,L,R,1,35.198,-3.6,1,5.936,2.13,14,G049N13,5,1,-1,incongruent,49,1,3.560989262808019
6,R,R,0,32.206,3.3,1,3.36,-0.214,-18,G049N13,5,-1,-1,congruent,49,1,3.4721527705958044
7,L,L,1,36.908,-3.9,1,NA,NA,NA,G049N13,5,1,1,congruent,49,1,3.6084283297163093
8,R,N,0,32.972,3.3,1,NA,NA,NA,G049N13,5,-1,0,neutral,49,1,3.495658716450981
9,L,R,0,26.081,-2.7,1,NA,NA,NA,G049N13,5,1,-1,incongruent,49,0,3.261207079881639
10,L,R,1,29.839,-3,1,7.784,1.87,9.56,G049N13,5,1,-1,incongruent,49,1,3.3958162627096753
11,L,R,1,44.408,-4.5,1,7.616,-1.1,15.9,G049N13,5,1,-1,incongruent,49,1,3.79341963338786
12,L,L,1,31.909,-3.3,1,NA,NA,NA,G049N13,5,1,1,congruent,49,1,3.462888101660588
13,L,N,1,29.246,-3,1,7.952,5.22,17.5,G049N13,5,1,0,neutral,49,1,3.3757428121896873
14,R,R,0,36.799,3.9,1,5.656,-5.94,-21.7,G049N13,5,-1,-1,congruent,49,1,3.605470670892624
15,R,L,0,29.839,3,1,NA,NA,NA,G049N13,5,-1,1,incongruent,49,1,3.3958162627096753
16,L,R,1,39.681,-4.2,1,NA,NA,NA,G049N13,5,1,-1,incongruent,49,1,3.6808724837120197
17,L,R,1,22.48,-2.4,1,8.624,1.23,11.7,G049N13,5,1,-1,incongruent,49,1,3.1126260250254902
18,R,L,1,12.521,1.5,1,6.664,NA,-6.96,G049N13,5,-1,1,incongruent,49,0,2.5274072346868106
19,R,L,0,25.722,2.7,1,NA,-1.61,-2,G049N13,5,-1,1,incongruent,49,1,3.247346656843895
20,L,N,0,40.806,-4.2,1,7.056,1.61,4.79,G049N13,5,1,0,neutral,49,0,3.7088291294215567
21,R,R,1,14.848,1.5,1,NA,NA,NA,G049N13,5,-1,-1,congruent,49,0,2.697865176043845
22,L,N,1,19.582,-2.1,1,7.896,-0.59,3.71,G049N13,5,1,0,neutral,49,1,2.9746107769318795
23,R,N,0,30.861,3.3,1,5.376,0.093,-19.3,G049N13,5,-1,0,neutral,49,1,3.4294932508170026
24,R,L,0,27.729,3,1,3.696,-1.17,-1.1,G049N13,5,-1,1,incongruent,49,1,3.32247879695075
25,R,R,1,20.129,2.1,1,6.776,-2.81,-10.5,G049N13,5,-1,-1,congruent,49,0,3.002161561318895
26,R,R,1,26.895,2.7,1,NA,NA,-15.5,G049N13,5,-1,-1,congruent,49,0,3.291940395725206
27,L,N,1,22.715,-2.4,1,4.536,3.12,12.6,G049N13,5,1,0,neutral,49,1,3.1230254992113666
28,R,R,0,34.245,3.6,1,6.104,-3.77,-29.5,G049N13,5,-1,-1,congruent,49,1,3.5335405686498684
29,L,L,1,21.387,-2.4,1,NA,NA,NA,G049N13,5,1,1,congruent,49,1,3.062783260803601
30,L,L,1,14.207,-1.5,1,5.544,0.81,0.026,G049N13,5,1,1,congruent,49,1,2.65373480088994
31,L,R,0,18.176,-2.1,1,NA,NA,NA,G049N13,5,1,-1,incongruent,49,0,2.900102042538741
32,L,L,1,23.058,-2.4,1,6.664,4.81,15.9,G049N13,5,1,1,congruent,49,1,3.138012780810762
33,R,N,1,22.371,2.4,1,8.288,4.2,-1.43,G049N13,5,-1,0,neutral,49,0,3.1077654772297674
34,R,L,1,29.261,3,1,9.072,0.172,-4.73,G049N13,5,-1,1,incongruent,49,0,3.376255571357946
35,L,L,1,17.199,-1.8,1,4.704,5.41,8.32,G049N13,5,1,1,congruent,49,1,2.8448512425943555
36,R,L,1,25.597,2.7,1,NA,NA,NA,G049N13,5,-1,1,incongruent,49,0,3.242475157118525
37,L,L,1,25.143,-2.7,1,5.824,2.82,3.06,G049N13,5,1,1,congruent,49,1,3.2245795277848788
38,R,R,0,22.371,2.4,1,NA,NA,NA,G049N13,5,-1,-1,congruent,49,1,3.1077654772297674
39,L,R,1,30.986,-3.3,1,7.112,2.82,7.01,G049N13,5,1,-1,incongruent,49,1,3.4335354895741
40,R,L,1,30.042,3,1,8.848,-2.29,2.49,G049N13,5,-1,1,incongruent,49,0,3.402596402575863
41,R,R,0,25.191,2.7,1,NA,NA,NA,G049N13,5,-1,-1,congruent,49,1,3.226486787869536
42,L,L,1,20.613,-2.1,1,8.848,12.3,-2.14,G049N13,5,1,1,congruent,49,1,3.0259219447170485
43,L,N,1,31.362,-3.3,1,NA,NA,NA,G049N13,5,1,0,neutral,49,1,3.44559696895884
44,R,L,0,32.987,3.3,1,6.888,2.26,-17.1,G049N13,5,-1,1,incongruent,49,1,3.4961135444580336
45,L,R,1,29.339,-3,1,NA,NA,NA,G049N13,5,1,-1,incongruent,49,1,3.378917688971074
46,L,R,1,21.246,-2.4,1,NA,NA,NA,G049N13,5,1,-1,incongruent,49,1,3.0561686423578216
47,R,L,1,20.614,2.1,1,NA,NA,NA,G049N13,5,-1,1,incongruent,49,0,3.025970456614601
48,R,R,0,23.246,2.4,1,NA,NA,NA,G049N13,5,-1,-1,congruent,49,1,3.1461330742215163
49,R,N,0,20.285,2.1,1,5.656,-1.79,-0.175,G049N13,5,-1,0,neutral,49,1,3.0098816966584105
0,R,R,0,11.513,1.2,2,NA,NA,NA,G050N13,6,-1,-1,congruent,50,1,2.443476831691527
1,R,R,0,20.255,2.1,2,7.848,-2.33,NA,G050N13,6,-1,-1,congruent,50,1,3.0084016766546537
2,L,N,1,10.575,-1.2,NA,NA,NA,NA,G050N13,6,1,0,neutral,50,1,2.3584927249323417
3,R,L,1,2.469,0.3,1,7.248,-2.22,-0.243,G050N13,6,-1,1,incongruent,50,0,0.9038132103630424
4,L,R,0,10.637,-1.2,2,4.944,3.39,2.32,G050N13,6,1,-1,incongruent,50,0,2.364338489269528
5,R,N,1,3.967,0.6,NA,3.312,-4.99,-2.31,G050N13,6,-1,0,neutral,50,0,1.378010141532193
6,L,R,0,13.302,-1.5,2,7.272,-0.01,0.153,G050N13,6,1,-1,incongruent,50,0,2.5879143998622296
7,R,L,0,18.863,2.1,2,5.952,-5.06,-5.04,G050N13,6,-1,1,incongruent,50,1,2.9372023313635873
8,R,L,0,1.948,0.3,3,NA,NA,NA,G050N13,6,-1,1,incongruent,50,1,0.6668032052203433
9,L,N,0,16.527,-1.8,NA,3.816,3.93,6.56,G050N13,6,1,0,neutral,50,0,2.8049954071586893
10,R,L,0,14.192,1.5,1,NA,NA,NA,G050N13,6,-1,1,incongruent,50,1,2.6526784255672236
11,R,L,1,13.333,1.5,2,7.44,-2.77,-5.54,G050N13,6,-1,1,incongruent,50,0,2.5902421651333216
12,L,R,1,14.894,-1.5,2,6.36,2.93,2.83,G050N13,6,1,-1,incongruent,50,1,2.700958447288454
13,L,L,1,13.864,-1.5,2,7.536,3.03,3.28,G050N13,6,1,1,congruent,50,1,2.629295552413305
14,R,R,0,2.64,0.3,2,NA,NA,NA,G050N13,6,-1,-1,congruent,50,1,0.9707789171582248
15,L,L,1,8.177,-0.9,2,7.824,-0.13,-0.874,G050N13,6,1,1,congruent,50,1,2.10132533517984
16,L,R,1,19.098,-2.1,2,NA,NA,NA,G050N13,6,1,-1,incongruent,50,1,2.9495836175280106
17,R,N,0,24.378,2.7,NA,4.464,-3.12,-6.7,G050N13,6,-1,0,neutral,50,1,3.193681086233645
18,L,R,0,9.997,-1.2,2,2.28,5.24,5.75,G050N13,6,1,-1,incongruent,50,0,2.302285047985044
19,R,N,0,10.841,1.2,NA,4.32,-1.85,-1.91,G050N13,6,-1,0,neutral,50,1,2.3833352426791548
20,R,L,1,1.86,0.3,2,8.088,-2.76,0.451,G050N13,6,-1,1,incongruent,50,0,0.62057648772511
21,L,L,1,9.247,-1.2,3,NA,NA,NA,G050N13,6,1,1,congruent,50,1,2.2242991745955014
22,R,R,0,10.56,1.2,2,4.512,-1.76,-1.61,G050N13,6,-1,-1,congruent,50,1,2.3570732782781154
23,L,L,1,8.317,-0.9,2,6.168,2.57,1.9,G050N13,6,1,1,congruent,50,1,2.1183016128865506
24,L,L,1,9.982,-1.2,2,6.168,2.61,3.82,G050N13,6,1,1,congruent,50,1,2.3007834710474175
25,R,L,0,14.005,1.5,3,NA,NA,NA,G050N13,6,-1,1,incongruent,50,1,2.639414408712072
26,L,N,0,9.747,-1.2,NA,4.944,2.85,0.993,G050N13,6,1,0,neutral,50,0,2.276959545355073
27,L,L,1,8.286,-0.9,1,2.952,1.48,1.49,G050N13,6,1,1,congruent,50,1,2.11456734365521
28,R,R,0,11.184,1.2,2,6.96,-1.19,-2.03,G050N13,6,-1,-1,congruent,50,1,2.4144841854914545
29,L,N,0,8.708,-0.9,NA,4.056,4.07,4.26,G050N13,6,1,0,neutral,50,0,2.164242143372301
30,R,L,0,17.09,1.8,2,6.336,-1.3,-2.16,G050N13,6,-1,1,incongruent,50,1,2.8384934971274993
31,L,L,1,8.833,-0.9,1,3.984,-0.141,0.825,G050N13,6,1,1,congruent,50,1,2.178494707762995
32,R,R,0,14.88,1.5,2,4.92,-2.42,-4.91,G050N13,6,-1,-1,congruent,50,1,2.700018029404946
33,L,R,1,15.02,-1.5,2,NA,NA,NA,G050N13,6,1,-1,incongruent,50,1,2.7093826463359885
34,R,R,0,17.091,1.8,3,4.872,-4.07,-4.82,G050N13,6,-1,-1,congruent,50,1,2.838552009166368
35,R,L,0,17.871,1.8,2,3.648,-1.56,-6.04,G050N13,6,-1,1,incongruent,50,1,2.8831792873146602
36,L,L,1,9.529,-1.2,1,5.808,1.98,-0.136,G050N13,6,1,1,congruent,50,1,2.254339780366051
37,L,L,1,17.449,-1.8,2,7.176,2.33,5.72,G050N13,6,1,1,congruent,50,1,2.859282340416093
38,R,R,0,5.498,0.6,2,NA,NA,NA,G050N13,6,-1,-1,congruent,50,1,1.704384389743054
39,L,R,0,17.137,-1.8,2,6.648,6.96,3.97,G050N13,6,1,-1,incongruent,50,0,2.841239868678712
40,R,N,1,12.693,1.5,NA,4.944,-2.44,-1.96,G050N13,6,-1,0,neutral,50,0,2.54105066040604
41,R,N,0,5.811,0.6,NA,8.376,-3.06,-1.04,G050N13,6,-1,0,neutral,50,1,1.7597526730929685
42,R,L,0,20.8,2.1,2,6.192,-3.58,-10.3,G050N13,6,-1,1,incongruent,50,1,3.0349529867072724
43,R,R,0,13.739,1.5,2,9.528,0.934,-5.69,G050N13,6,-1,-1,congruent,50,1,2.620238503941811
44,L,R,1,23.121,-2.4,1,6.552,5.01,10.7,G050N13,6,1,-1,incongruent,50,1,3.140741295463966
45,L,N,1,3,-0.3,NA,6.312,2.02,NA,G050N13,6,1,0,neutral,50,1,1.0986122886681098
46,R,R,0,14.785,1.5,2,8.376,-1.75,-3.25,G050N13,6,-1,-1,congruent,50,1,2.6936131533044407
47,L,R,0,12.661,-1.5,1,3.216,2.79,2.56,G050N13,6,1,-1,incongruent,50,0,2.5385264025381162
48,L,R,1,19.722,-2.1,3,5.04,2.9,3.07,G050N13,6,1,-1,incongruent,50,1,2.9817347639101373
49,L,L,1,8.911,-0.9,2,NA,NA,NA,G050N13,6,1,1,congruent,50,1,2.1872864686305826
0,R,R,0,17.152,1.8,2,6.244,-0.165,-7.37,G050N13,6,-1,-1,congruent,50,1,2.8421147848883916
1,R,L,0,13.224,1.5,1,7.448,-4.5,-3.19,G050N13,6,-1,1,incongruent,50,1,2.582033360518723
2,L,R,0,1.75,-0.3,2,6.832,4.02,NA,G050N13,6,1,-1,incongruent,50,0,0.5596157879354227
3,L,L,1,13.723,-1.5,2,5.04,1.51,2.33,G050N13,6,1,1,congruent,50,1,2.6190732572874964
4,L,L,1,13.567,-1.5,2,5.488,2.81,1.18,G050N13,6,1,1,congruent,50,1,2.6076403735031715
5,L,L,1,13.802,-1.5,2,5.572,2.32,3.16,G050N13,6,1,1,congruent,50,1,2.62481350919841
6,R,N,0,9.232,1.2,NA,9.324,-2.7,-2.47,G050N13,6,-1,0,neutral,50,1,2.2226757097657437
7,R,L,0,17.527,1.8,2,7.168,-2.26,-4.05,G050N13,6,-1,1,incongruent,50,1,2.863742549091039
8,L,L,1,17.34,-1.8,2,3.22,0.654,2.75,G050N13,6,1,1,congruent,50,1,2.853015971352396
9,R,R,0,15.621,1.8,2,5.152,-4.41,-4.43,G050N13,6,-1,-1,congruent,50,1,2.748616162848872
10,L,N,0,17.012,-1.8,NA,7.336,2.02,4.14,G050N13,6,1,0,neutral,50,0,2.833918977391387
11,R,L,1,21.887,2.4,2,5.796,-2.17,-10.1,G050N13,6,-1,1,incongruent,50,0,3.085892853261948
12,R,R,0,15.512,1.8,3,9.66,-0.977,-5.64,G050N13,6,-1,-1,congruent,50,1,2.741613917940351
13,R,L,0,7.411,0.9,1,5.656,-3.18,-0.767,G050N13,6,-1,1,incongruent,50,1,2.0029653829692218
14,R,L,1,8.099,0.9,2,7.98,-0.484,-0.529,G050N13,6,-1,1,incongruent,50,0,2.091740597266853
15,L,L,1,23.262,-2.4,2,4.9,1.25,5.72,G050N13,6,1,1,congruent,50,1,3.146821127916847
16,L,R,0,20.645,-2.1,1,6.3,1.72,3.86,G050N13,6,1,-1,incongruent,50,0,3.0274731593380535
17,R,R,0,16.84,1.8,2,1.987,-3.54,-6.11,G050N13,6,-1,-1,congruent,50,1,2.8237570088141806
18,L,R,0,18.41,-2.1,2,9.408,2.8,5.2,G050N13,6,1,-1,incongruent,50,0,2.9128939952449864
19,R,R,0,16.934,1.8,2,NA,NA,NA,G050N13,6,-1,-1,congruent,50,1,2.8293234352200853
20,R,R,0,10.966,1.2,2,8.036,-1.64,-1.77,G050N13,6,-1,-1,congruent,50,1,2.394799576981857
21,L,L,1,12.286,-1.5,2,5.124,2.67,2.74,G050N13,6,1,1,congruent,50,1,2.5084604027417354
22,R,R,0,17.231,1.8,3,NA,NA,NA,G050N13,6,-1,-1,congruent,50,1,2.8467100871609627
23,L,R,0,15.036,-1.5,2,2.548,6.4,3.93,G050N13,6,1,-1,incongruent,50,0,2.7104473257019315
24,R,N,0,12.708,1.5,NA,6.16,-1.85,-4.25,G050N13,6,-1,0,neutral,50,1,2.5422317164072696
25,L,R,1,19.707,-2.1,3,NA,NA,NA,G050N13,6,1,-1,incongruent,50,1,2.9809739025784454
26,L,N,1,11.435,-1.2,NA,6.664,1.62,2.34,G050N13,6,1,0,neutral,50,1,2.4366788274747444
27,L,R,1,20.019,-2.1,2,NA,NA,NA,G050N13,6,1,-1,incongruent,50,1,2.9966818225895793
28,R,R,0,17.918,1.8,2,NA,NA,NA,G050N13,6,-1,-1,congruent,50,1,2.8858057941753867
29,L,R,1,20.848,-2.1,1,NA,NA,NA,G050N13,6,1,-1,incongruent,50,1,3.037258020382489
30,R,L,0,25.145,2.7,3,8.848,-3.28,-14.9,G050N13,6,-1,1,incongruent,50,1,3.224659069623928
31,R,L,0,15.856,1.8,2,10.192,-7.35,-4.88,G050N13,6,-1,1,incongruent,50,1,2.763547977587632
32,R,L,1,13.238,1.5,2,NA,NA,NA,G050N13,6,-1,1,incongruent,50,0,2.583091481696731
33,L,R,0,17.683,-1.8,1,3.5,-0.644,5.43,G050N13,6,1,-1,incongruent,50,0,2.8726037260728403
34,L,L,1,12.286,-1.5,2,9.604,-0.111,-0.779,G050N13,6,1,1,congruent,50,1,2.5084604027417354
35,R,R,0,19.754,2.1,2,8.652,-1.85,-8.8,G050N13,6,-1,-1,congruent,50,1,2.9833560024859356
36,R,L,1,12.88,1.5,1,4.228,-1.06,-2.42,G050N13,6,-1,1,incongruent,50,0,2.5556757206762075
37,L,R,1,20.082,-2.1,2,6.86,8.14,8.86,G050N13,6,1,-1,incongruent,50,1,2.9998238914572446
38,L,N,1,5.623,-0.6,NA,4.648,6.26,-0.263,G050N13,6,1,0,neutral,50,1,1.7268653293100646
39,L,R,1,21.418,-2.4,2,NA,NA,NA,G050N13,6,1,-1,incongruent,50,1,3.0642316899786834
40,R,N,0,20.692,2.1,NA,8.26,-2.51,-4.56,G050N13,6,-1,0,neutral,50,1,3.0297471521412684
41,R,L,0,20.504,2.1,2,NA,NA,NA,G050N13,6,-1,1,incongruent,50,1,3.02061998906177
42,R,R,0,15.23,1.8,2,6.468,-1.95,-3.97,G050N13,6,-1,-1,congruent,50,1,2.7232671669070703
43,L,L,1,18.692,-2.1,1,4.396,0.782,3.47,G050N13,6,1,1,congruent,50,1,2.9280956248381798
44,L,L,1,20.176,-2.1,2,NA,NA,NA,G050N13,6,1,1,congruent,50,1,3.0044937792225634
45,R,N,0,13.739,1.5,NA,5.964,-1.34,-2.69,G050N13,6,-1,0,neutral,50,1,2.620238503941811
46,R,N,0,6.958,0.9,NA,5.124,-0.333,-2.01,G050N13,6,-1,0,neutral,50,1,1.9398920767297503
47,L,L,1,19.113,-2.1,2,NA,NA,NA,G050N13,6,1,1,congruent,50,1,2.950368731802461
48,L,N,1,7.505,-0.9,NA,8.764,1.84,0.239,G050N13,6,1,0,neutral,50,1,2.0155694650854254
49,L,N,1,15.731,-1.8,NA,5.488,4.35,3.48,G050N13,6,1,0,neutral,50,1,2.7556332878403675
0,R,R,0,16.278,1.8,2,7.168,-2.25,-2.77,G051N13,7,-1,-1,congruent,51,1,2.7898145029048496
1,R,L,0,21.496,2.4,2,4.128,-1.76,-6.58,G051N13,7,-1,1,incongruent,51,1,3.06786687131319
2,L,L,1,13.769,-1.5,2,4.896,-0.089,0.47,G051N13,7,1,1,congruent,51,1,2.6224196884622355
3,R,L,0,18.129,2.1,3,8.672,-4.09,-4.48,G051N13,7,-1,1,incongruent,51,1,2.8975128660475313
4,L,R,1,10.434,-1.2,3,7.072,0.248,-0.371,G051N13,7,1,-1,incongruent,51,1,2.345069704600201
5,L,R,0,9.887,-1.2,1,7.744,-0.275,-1.49,G051N13,7,1,-1,incongruent,51,0,2.291220762914996
6,L,L,1,9.638,-1.2,3,5.504,1.19,2.68,G051N13,7,1,1,congruent,51,1,2.265713618218141
7,L,L,1,21.59,-2.4,1,2.72,1.94,12.8,G051N13,7,1,1,congruent,51,1,3.072230244526716
8,L,R,0,8.801,-0.9,2,2.496,3.28,1.25,G051N13,7,1,-1,incongruent,51,0,2.174865351391675
9,L,R,1,21.277,-2.4,3,5.952,3.18,9.62,G051N13,7,1,-1,incongruent,51,1,3.057626677091581
10,L,L,1,10.981,-1.2,3,NA,NA,NA,G051N13,7,1,1,congruent,51,1,2.396166506615576
11,R,R,0,15.654,1.8,1,7.648,-2.57,-5.53,G051N13,7,-1,-1,congruent,51,1,2.7507264753826464
12,R,L,0,22.559,2.4,2,NA,NA,NA,G051N13,7,-1,1,incongruent,51,1,3.1161340994062865
13,R,N,0,17.293,1.8,NA,3.872,-3.25,-4.09,G051N13,7,-1,0,neutral,51,1,2.850301795343785
14,R,R,0,15.449,1.8,1,4.8,-2.48,-5.54,G051N13,7,-1,-1,congruent,51,1,2.7375442763299125
15,L,L,1,14.739,-1.5,2,NA,NA,NA,G051N13,7,1,1,congruent,51,1,2.690497041854621
16,R,R,0,17.824,1.8,1,NA,NA,NA,G051N13,7,-1,-1,congruent,51,1,2.8805458637448735
17,R,R,0,5.999,0.6,3,3.936,-3.33,-0.672,G051N13,7,-1,-1,congruent,51,1,1.791592788670956
18,R,N,0,4.842,0.6,NA,3.52,-3.09,-1.04,G051N13,7,-1,0,neutral,51,1,1.5773278585158668
19,L,R,0,14.49,-1.5,1,2.688,1.35,3.2,G051N13,7,1,-1,incongruent,51,0,2.673458756332591
20,R,L,1,17.559,1.8,2,5.952,-0.322,-3.99,G051N13,7,-1,1,incongruent,51,0,2.8655666389771937
21,R,L,0,17.184,1.8,2,NA,NA,NA,G051N13,7,-1,1,incongruent,51,1,2.843978718326454
22,L,R,0,6.411,-0.9,3,NA,NA,NA,G051N13,7,1,-1,incongruent,51,0,1.8580152650051203
23,R,R,0,10.45,1.2,2,4.256,-2.51,-1.62,G051N13,7,-1,-1,congruent,51,1,2.34660197841082
24,R,R,0,20.191,2.1,1,4.032,-3.59,-7.7,G051N13,7,-1,-1,congruent,51,1,3.005236960568237
25,L,N,1,15.262,-1.8,NA,2.592,2.31,4.32,G051N13,7,1,0,neutral,51,1,2.7253660788674416
26,R,L,0,20.066,2.1,2,NA,-1.27,-3.46,G051N13,7,-1,1,incongruent,51,1,2.999026840503421
27,L,L,1,5.904,-0.6,2,NA,NA,NA,G051N13,7,1,1,congruent,51,1,1.7756300872981714
28,L,R,0,17.356,-1.8,1,5.056,2.57,2.63,G051N13,7,1,-1,incongruent,51,0,2.8539382679361043
29,L,N,0,15.277,-1.8,NA,4.288,2.83,3.01,G051N13,7,1,0,neutral,51,0,2.726348429383586
30,L,R,1,12.958,-1.5,1,3.648,3.65,4.64,G051N13,7,1,-1,incongruent,51,1,2.5617133580277653
31,L,L,1,20.879,-2.1,1,NA,NA,NA,G051N13,7,1,1,congruent,51,1,3.0387438691472384
32,R,L,0,16.357,1.8,2,NA,-0.557,-2.01,G051N13,7,-1,1,incongruent,51,1,2.7946559402763884
33,L,R,0,17.512,-1.8,1,4.16,0.938,1.87,G051N13,7,1,-1,incongruent,51,0,2.862886360220562
34,R,L,0,15.762,1.8,1,6.4,-0.893,-4.92,G051N13,7,-1,1,incongruent,51,1,2.757601979931458
35,L,N,1,16.387,-1.8,NA,5.056,2.11,3.68,G051N13,7,1,0,neutral,51,1,2.796488337564087
36,R,R,0,13.396,1.5,3,6.24,-3.08,-3.49,G051N13,7,-1,-1,congruent,51,1,2.594956154931958
37,L,L,1,14.739,-1.5,2,NA,2.76,3.99,G051N13,7,1,1,congruent,51,1,2.690497041854621
38,R,N,0,16.683,1.8,NA,6.176,-2.56,-5.86,G051N13,7,-1,0,neutral,51,1,2.8143902368735367
39,R,N,0,1.86,0.3,NA,3.2,-2.4,-0.214,G051N13,7,-1,0,neutral,51,1,0.62057648772511
40,R,R,0,11.107,1.2,2,3.52,-4.26,-4.35,G051N13,7,-1,-1,congruent,51,1,2.407575540184983
41,R,R,0,14.411,1.5,1,2.24,-2.42,-4.85,G051N13,7,-1,-1,congruent,51,1,2.6679918038562245
42,L,R,1,13.661,-1.5,1,4.48,2.55,2.47,G051N13,7,1,-1,incongruent,51,1,2.61454505790535
43,L,N,1,8.536,-0.9,NA,3.04,2.94,2.1,G051N13,7,1,0,neutral,51,1,2.144292513999452
44,L,N,1,14.973,-1.5,NA,NA,NA,NA,G051N13,7,1,0,neutral,51,1,2.706248579155582
45,L,L,1,16.105,-1.8,2,NA,NA,NA,G051N13,7,1,1,congruent,51,1,2.779129782783162
46,L,L,1,14.894,-1.5,3,3.648,4.71,5.45,G051N13,7,1,1,congruent,51,1,2.700958447288454
47,R,L,0,22.026,2.4,1,5.952,-1.93,-6.83,G051N13,7,-1,1,incongruent,51,1,3.092223573742752
48,R,L,0,12.849,1.5,1,8.768,-1.19,-3.65,G051N13,7,-1,1,incongruent,51,1,2.5532659873013435
49,R,N,0,22.45,2.4,NA,8.448,-0.265,-8,G051N13,7,-1,0,neutral,51,1,3.1112906141882632
0,R,R,0,2.292,0.3,2,6.048,-3.11,NA,G051N13,7,-1,-1,congruent,51,1,0.8294247988524931
1,L,R,1,8.911,-0.9,1,5.096,1.62,0.914,G051N13,7,1,-1,incongruent,51,1,2.1872864686305826
2,L,R,1,10.903,-1.2,1,3.248,1.72,0.863,G051N13,7,1,-1,incongruent,51,1,2.3890379807242446
3,L,R,0,17.168,-1.8,2,4.396,1.35,3.7,G051N13,7,1,-1,incongruent,51,0,2.843047185888343
4,L,L,1,17.997,-1.8,3,4.312,0.996,4.42,G051N13,7,1,1,congruent,51,1,2.8902050773390657
5,L,L,1,12.474,-1.5,1,4.956,2.11,2.11,G051N13,7,1,1,congruent,51,1,2.523646478103931
6,R,N,0,14.13,1.5,NA,7.98,-2.02,-1.81,G051N13,7,-1,0,neutral,51,1,2.6483001966964363
7,L,L,1,17.652,-1.8,1,5.796,2.77,5.27,G051N13,7,1,1,congruent,51,1,2.870849091407301
8,L,N,1,19.457,-2.1,NA,6.104,2.78,8.31,G051N13,7,1,0,neutral,51,1,2.9682069024892392
9,L,N,1,30.191,-3.3,NA,1.708,4.78,8.3,G051N13,7,1,0,neutral,51,1,3.4075438667210194
10,R,R,0,13.958,1.5,1,7.868,-1.97,-1.31,G051N13,7,-1,-1,congruent,51,1,2.63605282059496
11,R,R,0,12.012,1.2,2,4.76,-0.887,-1.28,G051N13,7,-1,-1,congruent,51,1,2.485906150121084
12,R,L,0,22.137,2.4,2,5.236,-2.4,-9.25,G051N13,7,-1,1,incongruent,51,1,3.0972504167443393
13,R,N,0,19.785,2.1,NA,2.548,-2.41,-10.6,G051N13,7,-1,0,neutral,51,1,2.9849240748373878
14,L,L,1,15.293,-1.8,1,6.188,2.56,4.82,G051N13,7,1,1,congruent,51,1,2.727395207365986
15,L,R,1,24.193,-2.7,3,4.452,2.7,7.7,G051N13,7,1,-1,incongruent,51,1,3.1860633351216503
16,L,L,1,9.005,-0.9,1,2.52,2.74,1.14,G051N13,7,1,1,congruent,51,1,2.1977799786279193
17,L,R,1,16.121,-1.8,1,NA,NA,NA,G051N13,7,1,-1,incongruent,51,1,2.7801227698938615
18,R,L,0,11.872,1.2,2,NA,NA,NA,G051N13,7,-1,1,incongruent,51,1,2.4741826864250247
19,R,L,0,21.543,2.4,2,NA,NA,NA,G051N13,7,-1,1,incongruent,51,1,3.07005093779629
20,R,R,0,14.833,1.5,2,7.448,-1.73,-3.51,G051N13,7,-1,-1,congruent,51,1,2.6968544283414753
21,R,R,0,14.129,1.5,1,5.124,-0.68,-2.87,G051N13,7,-1,-1,congruent,51,1,2.648229422783671
22,L,L,1,13.474,-1.5,2,NA,NA,NA,G051N13,7,1,1,congruent,51,1,2.6007619025384683
23,L,R,1,15.872,-1.8,1,7.112,1.63,1.27,G051N13,7,1,-1,incongruent,51,1,2.764556550542517
24,L,L,1,11.122,-1.2,2,NA,NA,NA,G051N13,7,1,1,congruent,51,1,2.408925128765372
25,R,R,0,11.873,1.2,3,6.216,-0.98,-1.78,G051N13,7,-1,-1,congruent,51,1,2.474266914683655
26,L,R,0,5.014,-0.6,3,3.444,1.27,0.279,G051N13,7,1,-1,incongruent,51,0,1.6122339997361017
27,R,N,0,12.255,1.5,NA,9.1,-1.75,-3.2,G051N13,7,-1,0,neutral,51,1,2.505934016980076
28,R,L,0,14.896,1.5,1,8.232,-0.856,-2.12,G051N13,7,-1,1,incongruent,51,1,2.7010927205347115
29,R,R,0,17.84,1.8,2,6.608,-0.864,-5.71,G051N13,7,-1,-1,congruent,51,1,2.8814431271518632
30,R,L,1,10.669,1.2,1,NA,NA,NA,G051N13,7,-1,1,incongruent,51,0,2.367342340209324
31,L,L,1,14.021,-1.5,2,2.52,3.48,3.36,G051N13,7,1,1,congruent,51,1,2.6405562057389944
32,R,L,0,13.989,1.5,1,5.46,-3.48,-3.56,G051N13,7,-1,1,incongruent,51,1,2.6382713064942935
33,L,N,1,11.357,-1.2,NA,4.032,1.9,1.6,G051N13,7,1,0,neutral,51,1,2.4298342939095092
34,L,N,1,20.113,-2.1,NA,3.416,1.82,5.15,G051N13,7,1,0,neutral,51,1,3.0013663721710837
35,R,L,0,11.904,1.2,1,6.832,-1.67,-0.847,G051N13,7,-1,1,incongruent,51,1,2.476874478090736
36,R,N,0,12.833,1.5,NA,7.252,-2.18,-3.35,G051N13,7,-1,0,neutral,51,1,2.552019978262324
37,L,L,1,8.662,-0.9,3,3.584,2.55,2.17,G051N13,7,1,1,congruent,51,1,2.158945642792435
38,L,R,1,14.895,-1.5,1,NA,1.82,1.6,G051N13,7,1,-1,incongruent,51,1,2.7010255861652457
39,R,L,0,16.513,1.8,2,7.056,-0.695,-5.08,G051N13,7,-1,1,incongruent,51,1,2.804147949480851
40,L,N,1,20.472,-2.1,NA,5.656,1.46,7.24,G051N13,7,1,0,neutral,51,1,3.0190580988574878
41,R,L,0,8.177,0.9,1,6.216,-1.17,-0.389,G051N13,7,-1,1,incongruent,51,1,2.10132533517984
42,R,L,0,16.465,1.8,2,7.196,-1.49,-4.41,G051N13,7,-1,1,incongruent,51,1,2.8012369158283277
43,R,R,0,12.333,1.5,2,7.392,-2.03,-2.36,G051N13,7,-1,-1,congruent,51,1,2.512278596583851
44,R,R,0,16.246,1.8,2,9.94,-2.14,-5.47,G051N13,7,-1,-1,congruent,51,1,2.787846724628762
45,L,R,1,31.269,-3.3,3,8.008,1.63,16.4,G051N13,7,1,-1,incongruent,51,1,3.442627191425295
46,L,R,1,11.231,-1.2,1,5.572,0.819,0.631,G051N13,7,1,-1,incongruent,51,1,2.418677811980899
47,L,L,1,10.279,-1.2,2,NA,NA,NA,G051N13,7,1,1,congruent,51,1,2.330102979030785
48,R,N,0,21.168,2.4,NA,6.384,-0.016,-8.77,G051N13,7,-1,0,neutral,51,1,3.0524906073726
49,R,R,0,16.215,1.8,1,5.768,-0.351,-4.67,G051N13,7,-1,-1,congruent,51,1,2.7859367397592814
0,R,N,0,20.302,2.1,NA,3.872,-2.8,-9.14,G062N13,8,-1,0,neutral,62,1,3.0107194033622395
1,R,L,0,14.647,1.5,2,4.16,-2.21,-3.01,G062N13,8,-1,1,incongruent,62,1,2.6842355363361703
2,L,L,1,5.998,-0.6,2,5.44,0.638,-1.1,G062N13,8,1,1,congruent,62,1,1.7914260803268174
3,R,R,1,2.406,0.3,2,NA,NA,NA,G062N13,8,-1,-1,congruent,62,0,0.8779656175524871
4,L,R,1,16.434,-1.8,2,7.808,-0.015,0.056,G062N13,8,1,-1,incongruent,62,1,2.799352359508996
5,R,R,0,8.006,0.9,3,4.448,-0.028,-0.015,G062N13,8,-1,-1,congruent,62,1,2.080191260570382
6,L,L,1,8.63,-0.9,3,3.808,0.937,0.49,G062N13,8,1,1,congruent,62,1,2.155244505095337
7,L,L,1,12.553,-1.5,3,6.848,0.637,0.282,G062N13,8,1,1,congruent,62,1,2.5299596808360714
8,L,L,1,2.281,-0.3,3,5.248,6.17,0.738,G062N13,8,1,1,congruent,62,1,0.824613943302251
9,R,L,0,7.849,0.9,2,6.56,-4.72,2.14,G062N13,8,-1,1,incongruent,62,1,2.0603861351446766
10,L,L,1,2.281,-0.3,3,5.12,2.38,NA,G062N13,8,1,1,congruent,62,1,0.824613943302251
11,L,N,1,11.357,-1.2,NA,2.976,0.378,2.05,G062N13,8,1,0,neutral,62,1,2.4298342939095092
12,L,R,1,8.74,-0.9,2,4.992,0.493,1.29,G062N13,8,1,-1,incongruent,62,1,2.167910189667444
13,L,R,0,3.154,-0.6,3,4.512,4.42,-0.492,G062N13,8,1,-1,incongruent,62,0,1.1486714885408467
14,R,L,0,16.7,1.8,2,3.328,-1.95,-0.625,G062N13,8,-1,1,incongruent,62,1,2.8154087194227095
15,R,L,1,0.093,0.3,2,4.992,0.497,NA,G062N13,8,-1,1,incongruent,62,0,-2.375155785828881
16,L,R,1,13.474,-1.5,3,5.312,0.527,1.14,G062N13,8,1,-1,incongruent,62,1,2.6007619025384683
17,L,R,1,4.951,-0.6,3,4.096,6.61,0.909,G062N13,8,1,-1,incongruent,62,1,1.599589576379286
18,R,R,0,7.177,0.9,3,NA,-6.94,0.699,G062N13,8,-1,-1,congruent,62,1,1.9708814684479348
19,R,R,0,4.482,0.6,3,4.544,-5.06,-0.641,G062N13,8,-1,-1,congruent,62,1,1.5000693753787353
20,L,R,1,1.797,-0.3,3,5.056,0.977,NA,G062N13,8,1,-1,incongruent,62,1,0.586118607801422
21,R,L,0,4.28,0.6,3,6.848,-9.45,-0.889,G062N13,8,-1,1,incongruent,62,1,1.4539530095937054
22,L,R,1,10.529,-1.2,3,6.3,3.83,3.85,G062N13,8,1,-1,incongruent,62,1,2.354133354874622
23,L,N,1,7.022,-0.9,NA,5.32,0.413,2.94,G062N13,8,1,0,neutral,62,1,1.9490480777462404
24,R,R,0,2.204,0.3,3,4.46,-3.75,-0.048,G062N13,8,-1,-1,congruent,62,1,0.7902738912906682
25,R,L,1,21.465,2.4,2,5.54,-5,-10.86,G062N13,8,-1,1,incongruent,62,0,3.066423701676524
26,L,L,1,3.858,-0.6,3,1.599,3.28,0.85,G062N13,8,1,1,congruent,62,1,1.3501489144835375
27,L,R,1,7.584,-0.9,3,3.7,1.57,0.529,G062N13,8,1,-1,incongruent,62,1,2.026040764952721
28,R,N,0,16.061,1.8,NA,6.96,-0.552,-5.81,G062N13,8,-1,0,neutral,62,1,2.77639397308076
29,L,L,1,6.366,-0.9,3,4.44,-1.34,-2.3,G062N13,8,1,1,congruent,62,1,1.850971328859901
30,L,R,1,16.092,-1.8,3,3.46,2.75,7.37,G062N13,8,1,-1,incongruent,62,1,2.778322254087542
31,R,N,0,13.88,1.5,NA,8.46,-1.66,-4.84,G062N13,8,-1,0,neutral,62,1,2.6304489550786583
32,R,L,1,1.188,0.3,2,4.2,-0.713,NA,G062N13,8,-1,1,incongruent,62,0,0.17227122094045313
33,R,L,0,18.927,2.1,2,7.22,-2.32,-6.49,G062N13,8,-1,1,incongruent,62,1,2.940589474056782
34,L,N,1,3.826,-0.6,NA,2.96,6.28,1.34,G062N13,8,1,0,neutral,62,1,1.341819871018061
35,R,R,0,5.17,0.6,3,5.74,-1.72,0.23,G062N13,8,-1,-1,congruent,62,1,1.6428726885203377
36,L,L,1,2.594,-0.3,3,2.28,2.26,-0.904,G062N13,8,1,1,congruent,62,1,0.9532010858942521
37,R,R,0,9.654,1.2,3,5.24,0.129,-0.818,G062N13,8,-1,-1,congruent,62,1,2.2673723372383012
38,R,R,0,6.068,0.9,3,3.98,-1.89,-1.77,G062N13,8,-1,-1,congruent,62,1,1.8030290614862858
39,L,L,1,9.216,-1.2,3,6.78,5.51,0.293,G062N13,8,1,1,congruent,62,1,2.2209411039535354
40,R,N,1,11.28,1.2,NA,6.12,-5.38,-4.57,G062N13,8,-1,0,neutral,62,0,2.423031246069913
41,R,R,0,10.998,1.2,3,3.816,-3.59,-4.01,G062N13,8,-1,-1,congruent,62,1,2.397713438085623
42,L,R,0,4.966,-0.6,3,4.272,3.41,-2.64,G062N13,8,1,-1,incongruent,62,0,1.602614687085975
43,R,R,0,7.114,0.9,1,NA,NA,NA,G062N13,8,-1,-1,congruent,62,1,1.9620646735262635
44,L,N,1,6.568,-0.9,NA,5.16,0.45,0.6,G062N13,8,1,0,neutral,62,1,1.882209372150127
45,L,N,1,13.068,-1.5,NA,4.152,1.88,3.01,G062N13,8,1,0,neutral,62,1,2.5701664937388236
46,R,N,0,9.998,1.2,NA,5.928,-0.181,-3.77,G062N13,8,-1,0,neutral,62,1,2.3023850729913784
47,L,L,1,7.646,-0.9,2,5.256,6.41,0.455,G062N13,8,1,1,congruent,62,1,2.034182635274221
48,R,L,1,11.607,1.2,2,NA,NA,NA,G062N13,8,-1,1,incongruent,62,0,2.4516083643864857
49,R,L,0,9.872,1.2,2,5.472,-0.284,0.451,G062N13,8,-1,1,incongruent,62,1,2.289702467163032
0,R,R,1,8.521,0.9,2,8.568,1.37,-1.71,G062N13,8,-1,-1,congruent,62,0,2.142533704845819
1,L,L,1,8.365,-0.9,3,5.628,4.34,0.755,G062N13,8,1,1,congruent,62,1,2.1240563344387873
2,L,R,0,3.67,-0.6,3,3.612,0.703,-0.12,G062N13,8,1,-1,incongruent,62,0,1.3001916620664788
3,L,L,1,5.358,-0.6,3,4.536,7.41,-2.91,G062N13,8,1,1,congruent,62,1,1.6785907711224168
4,R,L,0,9.107,1.2,3,4.788,-3.62,-0.166,G062N13,8,-1,1,incongruent,62,1,2.2090433485856815
5,L,N,0,6.537,-0.9,NA,3.64,0.527,3.34,G062N13,8,1,0,neutral,62,0,1.8774783446305925
6,L,R,0,5.514,-0.6,3,4.116,3.08,0.708,G062N13,8,1,-1,incongruent,62,0,1.707290312601605
7,L,N,1,10.999,-1.2,NA,4.676,NA,0.152,G062N13,8,1,0,neutral,62,1,2.39780435957498
8,L,L,0,13.756,-1.5,2,6.16,1.9,3.94,G062N13,8,1,1,congruent,62,0,2.62147509257002
9,R,N,1,5.561,0.6,NA,3.584,0.093,0.03,G062N13,8,-1,0,neutral,62,0,1.715777948205427
10,L,R,1,8.1,-0.9,3,6.524,NA,0.824,G062N13,8,1,-1,incongruent,62,1,2.0918640616783932
11,L,N,1,15.481,-1.8,NA,6.384,3.91,3.73,G062N13,8,1,0,neutral,62,1,2.7396134655583286
12,L,R,1,12.786,-1.5,3,NA,NA,NA,G062N13,8,1,-1,incongruent,62,1,2.5483508223445352
13,L,L,1,8.022,-0.9,3,5.12,11,1.07,G062N13,8,1,1,congruent,62,1,2.082187767347861
14,L,L,1,6.1,-0.9,3,NA,NA,NA,G062N13,8,1,1,congruent,62,1,1.8082887711792655
15,R,N,0,14.333,1.5,NA,NA,NA,NA,G062N13,8,-1,0,neutral,62,1,2.6625645709410786
16,R,L,1,12.631,1.5,3,9.02,-1.69,-3.49,G062N13,8,-1,1,incongruent,62,0,2.536154109791838
17,L,L,1,5.686,-0.6,3,3.56,4.36,1.98,G062N13,8,1,1,congruent,62,1,1.7380070132288081
18,L,L,1,6.428,-0.9,3,5.7,6.42,0.611,G062N13,8,1,1,congruent,62,1,1.8606634478752662
19,L,L,1,15.17,-1.8,2,7.02,6.39,6.71,G062N13,8,1,1,congruent,62,1,2.719319793360441
20,L,R,0,4.998,-0.6,3,4.22,6.25,-3.26,G062N13,8,1,-1,incongruent,62,0,1.6090378324127608
21,R,R,0,13.272,1.5,3,4.8,-2.96,-7.21,G062N13,8,-1,-1,congruent,62,1,2.5856565528881434
22,R,R,1,9.107,1.2,2,8.44,1.08,-1.42,G062N13,8,-1,-1,congruent,62,0,2.2090433485856815
23,L,R,1,12.786,-1.5,2,6.22,2.93,2.76,G062N13,8,1,-1,incongruent,62,1,2.5483508223445352
24,R,R,0,11.702,1.2,2,8.72,-7.55,-6.13,G062N13,8,-1,-1,congruent,62,1,2.4597597673660445
25,L,L,1,4.061,-0.6,2,5.6,-0.766,1.74,G062N13,8,1,1,congruent,62,1,1.4014292487041606
26,L,L,1,6.178,-0.9,3,4.02,-0.591,0.147,G062N13,8,1,1,congruent,62,1,1.82099459449639
27,L,R,1,7.224,-0.9,3,2.72,3.82,0.996,G062N13,8,1,-1,incongruent,62,1,1.9774088161146843
28,R,L,0,12.568,1.5,3,6.32,-3.55,1.46,G062N13,8,-1,1,incongruent,62,1,2.53115390095332
29,R,R,0,7.116,0.9,3,NA,NA,NA,G062N13,8,-1,-1,congruent,62,1,1.9623457698035887
30,R,R,0,7.865,0.9,3,NA,NA,NA,G062N13,8,-1,-1,congruent,62,1,2.0624225365102413
31,L,R,1,12.537,-1.5,3,6.02,5.06,4.64,G062N13,8,1,-1,incongruent,62,1,2.528684272133888
32,L,R,0,11.92,-1.2,2,3.34,1.74,2.57,G062N13,8,1,-1,incongruent,62,0,2.4782176616372036
33,R,L,1,16.012,1.8,2,7.32,-7.69,-3.11,G062N13,8,-1,1,incongruent,62,0,2.7733384411303272
34,L,R,1,4.358,-0.6,3,2.68,6.21,-0.307,G062N13,8,1,-1,incongruent,62,1,1.472013236522428
35,R,R,0,3.514,0.6,3,NA,NA,NA,G062N13,8,-1,-1,congruent,62,1,1.2567549897649053
36,R,R,0,6.756,0.9,3,5.26,-1.67,-2.54,G062N13,8,-1,-1,congruent,62,1,1.9104309989455537
37,R,L,1,7.865,0.9,3,NA,NA,NA,G062N13,8,-1,1,incongruent,62,0,2.0624225365102413
38,R,N,0,14.755,1.5,NA,8.96,-1.41,-7.36,G062N13,8,-1,0,neutral,62,1,2.691582008394903
39,R,L,0,12.77,1.5,3,NA,NA,NA,G062N13,8,-1,1,incongruent,62,1,2.547098670044448
40,R,L,0,17.309,1.8,3,8.48,-1.55,-5.51,G062N13,8,-1,1,incongruent,62,1,2.8512265974442617
41,R,N,0,2.375,0.3,NA,NA,NA,NA,G062N13,8,-1,0,neutral,62,1,0.8649974374866045
42,L,N,1,11.513,-1.2,NA,5.82,1.32,2.22,G062N13,8,1,0,neutral,62,1,2.443476831691527
43,R,L,0,6.771,0.9,3,NA,NA,NA,G062N13,8,-1,1,incongruent,62,1,1.9126487865035082
44,R,N,0,10.935,1.2,NA,4.58,-1.39,-0.043,G062N13,8,-1,0,neutral,62,1,2.391968654128731
45,R,R,0,4.467,0.6,3,4.32,-3.21,-8.445,G062N13,8,-1,-1,congruent,62,1,1.4967170423699816
46,R,R,0,6.647,0.9,3,NA,NA,NA,G062N13,8,-1,-1,congruent,62,1,1.8941656250594447
47,R,L,0,9.061,1.2,3,7.82,-0.348,-3.02,G062N13,8,-1,1,incongruent,62,1,2.2039794892399236
48,L,N,0,9.077,-1.2,NA,4.04,0.718,2.78,G062N13,8,1,0,neutral,62,0,2.2057437415444903
49,R,L,0,13.146,1.5,3,9.08,-1.14,-0.485,G062N13,8,-1,1,incongruent,62,1,2.5761175298413845
0,R,R,0,8.693,0.9,1,6.12,-2.4,-0.421,G067N13,9,-1,-1,congruent,67,1,2.162518104096927
1,R,L,0,30.738,3.3,2,7.056,-0.691,-7.36,G067N13,9,-1,1,incongruent,67,1,3.42549967418512
2,L,R,0,42.071,-4.2,2,7.944,1.87,8.71,G067N13,9,1,-1,incongruent,67,0,3.739358667227227
3,R,L,0,30.206,3.3,1,8.16,-0.368,-5.77,G067N13,9,-1,1,incongruent,67,1,3.40804058014415
4,R,R,0,32.347,3.3,2,9.696,-2.34,-15.1,G067N13,9,-1,-1,congruent,67,1,3.4765212809434427
5,L,N,1,18.926,-2.1,NA,9.336,0.909,0.93,G067N13,9,1,0,neutral,67,1,2.9405366380860407
6,R,L,1,30.706,3.3,2,5.232,-0.068,-3.96,G067N13,9,-1,1,incongruent,67,0,3.424458075236707
7,R,R,0,25.034,2.7,3,8.64,-2.58,-5.73,G067N13,9,-1,-1,congruent,67,1,3.2202349009058318
8,L,R,1,24.316,-2.7,1,NA,-0.948,6.37,G067N13,9,1,-1,incongruent,67,1,3.191134569886476
9,R,R,0,28.713,3,3,4.08,-4.79,-11.4,G067N13,9,-1,-1,congruent,67,1,3.357349981881879
10,R,R,0,25.659,2.7,3,NA,-1.5,-8.39,G067N13,9,-1,-1,congruent,67,1,3.244894387266754
11,L,N,1,13.583,-1.5,NA,5.448,0.286,0.432,G067N13,9,1,0,neutral,67,1,2.6088190108403535
12,R,L,1,20.238,2.1,2,9,-1.19,-4.22,G067N13,9,-1,1,incongruent,67,0,3.007562025307568
13,R,L,0,22.511,2.4,1,7.056,1,-5.39,G067N13,9,-1,1,incongruent,67,1,3.114004078632026
14,R,N,1,25.503,2.7,NA,5.592,-0.914,-3.52,G067N13,9,-1,0,neutral,67,0,3.2387960923033314
15,R,N,0,18.509,1.8,NA,NA,-2.13,-1.75,G067N13,9,-1,0,neutral,67,1,2.91825710027458
16,L,L,1,15.606,-1.8,3,8.4,0.943,2.04,G067N13,9,1,1,congruent,67,1,2.7476554556945696
17,R,R,0,10.778,1.2,2,NA,NA,NA,G067N13,9,-1,-1,congruent,67,1,2.377507019511305
18,L,R,1,11.48,-1.2,1,4.344,1.99,1.56,G067N13,9,1,-1,incongruent,67,1,2.4406063908914204
19,R,N,1,6.162,0.9,NA,5.784,-0.079,1.06,G067N13,9,-1,0,neutral,67,0,1.8184014001744762
20,L,L,1,13.348,-1.5,3,7.2,1.07,2.12,G067N13,9,1,1,congruent,67,1,2.5913665608891274
21,R,R,0,14.067,1.5,2,NA,0.406,-4.19,G067N13,9,-1,-1,congruent,67,1,2.6438316287755588
22,L,L,1,21.137,-2.4,1,9.816,0.777,1.71,G067N13,9,1,1,congruent,67,1,3.0510250593026997
23,R,R,0,26.987,2.7,2,4.656,-3.49,-10.4,G067N13,9,-1,-1,congruent,67,1,3.2953552685734193
24,R,R,0,22.325,2.4,3,5.088,-1.11,-6.37,G067N13,9,-1,-1,congruent,67,1,3.105707126762563
25,R,L,1,33.081,3.3,1,10.2,-1.24,-4.56,G067N13,9,-1,1,incongruent,67,0,3.4989590994446513
26,L,R,0,25.988,-2.7,1,5.784,-0.553,4.7,G067N13,9,1,-1,incongruent,67,0,3.2576348930182846
27,R,N,1,29.37,3,NA,NA,-2.34,-6.73,G067N13,9,-1,0,neutral,67,0,3.379973745210529
28,R,L,0,28.324,3,1,NA,-1.48,-6.53,G067N13,9,-1,1,incongruent,67,1,3.3437095017895277
29,L,R,1,20.16,-2.1,0,8.28,0.313,3.22,G067N13,9,1,-1,incongruent,67,1,3.0037004432031678
30,L,R,1,18.769,-2.1,0,9.984,0.523,0.287,G067N13,9,1,-1,incongruent,67,1,2.932206572674113
31,L,R,1,26.942,-2.7,1,7.08,1.13,4.2,G067N13,9,1,-1,incongruent,67,1,3.2936864072763763
32,L,L,0,31.706,-3.3,0,8.88,2.6,8.65,G067N13,9,1,1,congruent,67,0,3.456505937421036
33,R,L,1,21.004,2.1,2,NA,NA,NA,G067N13,9,-1,1,incongruent,67,0,3.044712895775613
34,L,R,0,30.128,-3.3,2,8.976,1.53,8.28,G067N13,9,1,-1,incongruent,67,0,3.4054549719147964
35,L,L,0,26.613,-2.7,1,6.024,1.08,7.26,G067N13,9,1,1,congruent,67,0,3.2813998182065593
36,L,N,1,22.793,-2.4,NA,6.48,0.899,4.24,G067N13,9,1,0,neutral,67,1,3.1264534712770007
37,L,L,1,24.222,-2.7,3,6.264,2.23,2.25,G067N13,9,1,1,congruent,67,1,3.187261311098859
38,R,L,1,28.792,3,1,9.408,0.41,-5.7,G067N13,9,-1,1,incongruent,67,0,3.3600975707767295
39,L,L,0,26.816,-2.7,0,NA,NA,NA,G067N13,9,1,1,congruent,67,0,3.2889987242996725
40,L,N,1,30.956,-3.3,NA,5.664,2.52,9.51,G067N13,9,1,0,neutral,67,1,3.432566841408213
41,R,L,1,26.316,2.7,0,NA,-4.9,-0.853,G067N13,9,-1,1,incongruent,67,0,3.270177119223751
42,L,L,1,34.839,-3.6,0,NA,NA,NA,G067N13,9,1,1,congruent,67,1,3.5507374489317303
43,L,L,1,19.692,-2.1,2,NA,NA,NA,G067N13,9,1,1,congruent,67,1,2.9802124618959542
44,R,N,0,20.082,2.1,NA,9.696,-1.65,-3.23,G067N13,9,-1,0,neutral,67,1,2.9998238914572446
45,L,R,0,21.84,-2.4,1,6.912,0.286,3.02,G067N13,9,1,-1,incongruent,67,0,3.083743150876704
46,L,R,1,24.238,-2.7,0,8.112,-0.204,4.27,G067N13,9,1,-1,incongruent,67,1,3.1879216495462956
47,R,R,0,19.582,2.1,2,5.88,-2.9,-4.63,G067N13,9,-1,-1,congruent,67,1,2.9746107769318795
48,L,L,1,19.098,-2.1,2,NA,NA,NA,G067N13,9,1,1,congruent,67,1,2.9495836175280106
49,L,N,0,23.667,-2.4,NA,NA,NA,NA,G067N13,9,1,0,neutral,67,0,3.1640816727810623
0,L,L,1,10.731,-1.2,2,3.46,4.64,1.24,G067N13,9,1,1,congruent,67,1,2.37313674894499
1,R,L,1,25.223,2.7,1,10.62,-1.03,-7.24,G067N13,9,-1,1,incongruent,67,0,3.227756276674138
2,R,L,0,16.418,1.8,0,10.92,0.173,-1.49,G067N13,9,-1,1,incongruent,67,1,2.798378293926074
3,L,R,1,19.427,-2.1,0,6.56,-1.98,0.299,G067N13,9,1,-1,incongruent,67,1,2.9666638510566434
4,R,R,0,12.833,1.5,2,4.12,-2.25,-4.64,G067N13,9,-1,-1,congruent,67,1,2.552019978262324
5,R,R,0,14.021,1.5,2,4.18,-2.5,-5.06,G067N13,9,-1,-1,congruent,67,1,2.6405562057389944
6,L,R,0,5.632,-0.6,3,4.48,-1.27,NA,G067N13,9,1,-1,incongruent,67,0,1.7284646188557413
7,R,L,0,22.793,2.4,0,8.2,-3.62,-2.64,G067N13,9,-1,1,incongruent,67,1,3.1264534712770007
8,R,R,0,15.09,1.8,3,5.02,-1.12,-3.75,G067N13,9,-1,-1,congruent,67,1,2.7140322727797574
9,R,L,1,17.98,1.8,1,10.844,1.88,-0.817,G067N13,9,-1,1,incongruent,67,0,2.8892600290434745
10,L,L,0,19.722,-2.1,0,4.38,-1.2,7.64,G067N13,9,1,1,congruent,67,0,2.9817347639101373
11,L,R,1,4.526,-0.6,0,5.48,0.788,NA,G067N13,9,1,-1,incongruent,67,1,1.5098385472113456
12,R,N,1,6.943,0.9,NA,NA,NA,NA,G067N13,9,-1,0,neutral,67,0,1.9377339577711363
13,R,L,0,14.333,1.5,1,NA,NA,NA,G067N13,9,-1,1,incongruent,67,1,2.6625645709410786
14,R,N,0,15.95,1.8,NA,NA,NA,NA,G067N13,9,-1,0,neutral,67,1,2.7694588292308535
15,R,L,1,21.106,2.4,1,NA,-1.24,-2.68,G067N13,9,-1,1,incongruent,67,0,3.0495573602488983
16,L,L,0,19.301,-2.1,0,NA,NA,NA,G067N13,9,1,1,congruent,67,0,2.9601569080400707
17,L,R,0,14.411,-1.5,1,7.86,-1.25,-1.21,G067N13,9,1,-1,incongruent,67,0,2.6679918038562245
18,R,L,0,23.45,2.4,0,3.08,-8.34,-6.4,G067N13,9,-1,1,incongruent,67,1,3.1548704948922883
19,L,N,1,20.488,-2.1,NA,6.5,2.06,4.96,G067N13,9,1,0,neutral,67,1,3.019839348897224
20,R,R,0,20.145,2.1,2,6.82,-3.15,-11.6,G067N13,9,-1,-1,congruent,67,1,3.0029561186433105
21,R,N,1,22.824,2.4,NA,6.28,-2.92,-7.18,G067N13,9,-1,0,neutral,67,0,3.127812613911199
22,R,R,1,14.808,1.5,2,8.68,-4.83,-6,G067N13,9,-1,-1,congruent,67,0,2.6951675752711965
23,R,R,0,15.591,1.8,3,5.94,-7.29,-6,G067N13,9,-1,-1,congruent,67,1,2.7466938246944146
24,L,R,1,23.902,-2.4,1,6.4,-0.328,8.17,G067N13,9,1,-1,incongruent,67,1,3.1739621374446894
25,L,R,0,18.989,-2.1,2,9.14,2.9,5.69,G067N13,9,1,-1,incongruent,67,0,2.94385986414328
26,L,N,1,17.371,-1.8,NA,6.62,1.07,5.44,G067N13,9,1,0,neutral,67,1,2.854802149119786
27,L,N,1,16.262,-1.8,NA,8.34,5.71,1.97,G067N13,9,1,0,neutral,67,1,2.788831097785646
28,L,L,0,17.372,-1.8,0,7.96,-1.78,3.86,G067N13,9,1,1,congruent,67,0,2.8548597146725756
29,R,R,0,19.942,2.1,1,5.08,-1.5,-14.7,G067N13,9,-1,-1,congruent,67,1,2.9928280604066013
30,L,L,1,18.129,-2.1,3,NA,NA,NA,G067N13,9,1,1,congruent,67,1,2.8975128660475313
31,R,R,0,23.683,2.4,3,7.24,-0.567,-10.5,G067N13,9,-1,-1,congruent,67,1,3.1647574911805965
32,R,N,1,23.293,2.4,NA,7.84,-1.71,-8.24,G067N13,9,-1,0,neutral,67,0,3.148152886249217
33,L,L,0,28.933,-3,0,NA,NA,NA,G067N13,9,1,1,congruent,67,0,3.3649828121945036
34,L,R,1,25.489,-2.7,0,8.88,0.332,5.73,G067N13,9,1,-1,incongruent,67,1,3.2382469865474572
35,L,N,1,8.75,-0.9,NA,5.9,0.022,NA,G067N13,9,1,0,neutral,67,1,2.169053700369523
36,L,N,0,16.45,-1.8,NA,7.46,3.24,2.91,G067N13,9,1,0,neutral,67,0,2.800325477211381
37,R,N,1,23.809,2.4,NA,NA,-1.26,-8.39,G067N13,9,-1,0,neutral,67,0,3.170063660456765
38,R,L,0,16.449,1.8,0,10.92,-2.49,-7.45,G067N13,9,-1,1,incongruent,67,1,2.800264685090021
39,L,L,0,23.323,-2.4,0,NA,NA,NA,G067N13,9,1,1,congruent,67,0,3.149439998148207
40,L,R,1,14.786,-1.5,0,7.32,2.25,4.54,G067N13,9,1,-1,incongruent,67,1,2.6936807871349084
41,R,R,1,27.339,3,1,4.8,-7.69,-14.5,G067N13,9,-1,-1,congruent,67,0,3.3083142541820996
42,L,L,0,18.66,-2.1,3,NA,NA,NA,G067N13,9,1,1,congruent,67,0,2.926382195419198
43,R,R,0,21.606,2.4,3,NA,NA,NA,G067N13,9,-1,-1,congruent,67,1,3.0729710538947934
44,R,L,1,27.636,3,2,9.28,0.018,-10.5,G067N13,9,-1,1,incongruent,67,0,3.3191192706265484
45,L,L,1,27.292,-3,2,NA,NA,NA,G067N13,9,1,1,congruent,67,1,3.306593618953177
46,L,R,0,24.502,-2.7,3,NA,NA,NA,G067N13,9,1,-1,incongruent,67,0,3.1987547468719786
47,R,L,0,38.268,3.9,0,NA,NA,NA,G067N13,9,-1,1,incongruent,67,1,3.644614037815921
48,L,L,0,21.793,-2.4,0,NA,NA,NA,G067N13,9,1,1,congruent,67,0,3.081588817313674
49,L,R,0,20.832,-2.1,2,7.08,1.36,7.69,G067N13,9,1,-1,incongruent,67,0,3.0364902660261586
0,L,R,1,15.574,-1.8,1,3.948,-4.88,4.1,G068N13,10,1,-1,incongruent,68,1,2.745602857154794
1,L,N,1,15.669,-1.8,NA,8.96,1.84,1.94,G068N13,10,1,0,neutral,68,1,2.7516842381222713
2,L,N,0,6.568,-0.9,NA,5.796,3.26,-0.266,G068N13,10,1,0,neutral,68,0,1.882209372150127
3,R,L,1,3.793,0.6,1,NA,NA,NA,G068N13,10,-1,1,incongruent,68,0,1.3331572627067618
4,R,L,0,18.972,2.1,1,4.2,4.08,-5.79,G068N13,10,-1,1,incongruent,68,1,2.9429642080153355
5,L,L,1,9.95,-1.2,1,4.928,3.15,1.7,G068N13,10,1,1,congruent,68,1,2.2975725511705014
6,R,L,0,14.567,1.5,0,9.268,-1.18,-4.44,G068N13,10,-1,1,incongruent,68,1,2.6787586964668106
7,L,L,1,7.209,-0.9,1,5.628,1.1,1.03,G068N13,10,1,1,congruent,68,1,1.9753302454224415
8,L,L,1,6.13,-0.9,1,NA,NA,NA,G068N13,10,1,1,congruent,68,1,1.81319474994812
9,R,L,0,13.911,1.5,0,9.24,-2.09,-2.83,G068N13,10,-1,1,incongruent,68,1,2.6326798940774334
10,R,R,0,10.482,1.2,2,6.076,-1.37,-1.14,G068N13,10,-1,-1,congruent,68,1,2.3496595003799743
11,L,R,0,1.984,-0.3,1,2.968,1.65,NA,G068N13,10,1,-1,incongruent,68,0,0.6851150088626811
12,R,R,0,2.688,0.3,2,4.704,-3.57,-0.228,G068N13,10,-1,-1,congruent,68,1,0.9887974226609032
13,R,R,0,13.785,1.5,2,7.42,-2.53,-3.36,G068N13,10,-1,-1,congruent,68,1,2.62358104447576
14,R,L,1,0.203,0.3,2,3.836,-1.59,-0.4,G068N13,10,-1,1,incongruent,68,0,-1.5945492999403497
15,L,L,1,0.453,-0.3,2,5.012,1.38,NA,G068N13,10,1,1,congruent,68,1,-0.791863153499103
16,L,R,0,5.686,-0.6,1,3.808,2.41,0.496,G068N13,10,1,-1,incongruent,68,0,1.7380070132288081
17,L,R,0,3.841,-0.6,2,4.396,1.42,NA,G068N13,10,1,-1,incongruent,68,0,1.3457327493637679
18,R,N,0,6.067,0.9,NA,6.356,-2.54,-0.902,G068N13,10,-1,0,neutral,68,1,1.8028642489601607
19,L,R,1,2.156,-0.3,1,2.66,2.73,NA,G068N13,10,1,-1,incongruent,68,1,0.7682546530467508
20,L,N,1,4.873,-0.6,NA,NA,2.7,0.29,G068N13,10,1,0,neutral,68,1,1.583709763861369
21,R,R,0,5.747,0.6,1,NA,-3.32,-0.834,G068N13,10,-1,-1,congruent,68,1,1.7486779795256044
22,R,N,0,5.638,0.6,NA,6.888,-2.17,-1.62,G068N13,10,-1,0,neutral,68,1,1.7295293926919209
23,L,L,1,8.348,-0.9,2,3.5,2.14,0.451,G068N13,10,1,1,congruent,68,1,2.1220219892149546
24,L,R,0,2.89,-0.3,1,4.984,1.71,0.248,G068N13,10,1,-1,incongruent,68,0,1.0612565021243408
25,L,R,1,3.685,-0.6,2,2.38,0.772,-0.056,G068N13,10,1,-1,incongruent,68,1,1.3042705256412999
26,L,R,1,5.076,-0.6,1,2.94,2.35,1.04,G068N13,10,1,-1,incongruent,68,1,1.624523549852141
27,R,N,0,9.279,1.2,NA,9.408,-1.3,-0.708,G068N13,10,-1,0,neutral,68,1,2.227753782371042
28,L,R,1,5.794,-0.6,1,6.748,2.15,0.081,G068N13,10,1,-1,incongruent,68,1,1.7568228993471586
29,L,N,1,6.38,-0.9,NA,3.584,2.45,2.23,G068N13,10,1,0,neutral,68,1,1.8531680973566984
30,L,N,1,4.044,-0.6,NA,5.18,2.48,0.04,G068N13,10,1,0,neutral,68,1,1.397234301158225
31,R,N,0,6.286,0.9,NA,7.476,-2.02,0.187,G068N13,10,-1,0,neutral,68,1,1.8383249383753757
32,L,L,1,28.682,-3,1,NA,NA,NA,G068N13,10,1,1,congruent,68,1,3.3562697483070205
33,L,L,1,10.872,-1.2,2,3.976,3.04,2.16,G068N13,10,1,1,congruent,68,1,2.386190676848843
34,L,R,1,14.77,-1.5,2,6.776,2.58,3.4,G068N13,10,1,-1,incongruent,68,1,2.6925980965432883
35,R,R,0,4.154,0.6,1,NA,-2.72,-0.065,G068N13,10,-1,-1,congruent,68,1,1.4240717254539206
36,R,L,1,2.031,0.3,2,4.62,-1.69,0.839,G068N13,10,-1,1,incongruent,68,0,0.7085282825982477
37,R,R,0,3.67,0.6,2,4.284,-1.73,-0.848,G068N13,10,-1,-1,congruent,68,1,1.3001916620664788
38,R,L,1,18.192,2.1,1,8.148,-2.41,-3.66,G068N13,10,-1,1,incongruent,68,0,2.90098193700818
39,R,L,1,1.781,0.3,2,NA,NA,NA,G068N13,10,-1,1,incongruent,68,0,0.5771750043075246
40,L,L,1,8.099,-0.9,1,3.584,1.66,1.28,G068N13,10,1,1,congruent,68,1,2.091740597266853
41,R,N,1,6.694,0.9,NA,7.028,-3.66,-0.674,G068N13,10,-1,0,neutral,68,0,1.9012116027891348
42,R,R,0,11.793,1.2,2,3.64,-3.61,-2.05,G068N13,10,-1,-1,congruent,68,1,2.467506135107833
43,R,R,0,3.389,0.6,2,NA,NA,NA,G068N13,10,-1,-1,congruent,68,1,1.2205348926249142
44,L,L,1,9.669,-1.2,0,3.864,2.2,1.68,G068N13,10,1,1,congruent,68,1,2.2689248915014106
45,R,R,0,10.091,1.2,2,5.74,-1.54,-2.3,G068N13,10,-1,-1,congruent,68,1,2.311643937482392
46,R,L,0,14.802,1.5,1,8.568,-0.553,-1.23,G068N13,10,-1,1,incongruent,68,1,2.694762306775275
47,R,R,1,9.387,1.2,2,6.44,-0.501,-1.32,G068N13,10,-1,-1,congruent,68,0,2.239325753354855
48,R,L,1,3.513,0.6,1,NA,NA,NA,G068N13,10,-1,1,incongruent,68,0,1.25647037328369
49,L,L,0,3.732,-0.6,1,4.172,1.57,-0.142,G068N13,10,1,1,congruent,68,0,1.3169442829850975
0,R,L,0,8.24,0.9,1,4.296,-3.78,-0.96,G068N13,10,-1,1,incongruent,68,1,2.1090003439213802
1,R,R,1,8.786,0.9,1,NA,-0.801,-1.06,G068N13,10,-1,-1,congruent,68,0,2.1731595455535877
2,R,N,1,3.592,0.6,NA,3.264,-3.27,-0.29,G068N13,10,-1,0,neutral,68,0,1.2787091504399533
3,R,R,1,5.998,0.6,1,NA,NA,NA,G068N13,10,-1,-1,congruent,68,0,1.7914260803268174
4,L,L,1,7.864,-0.9,3,4.128,1.69,0.324,G068N13,10,1,1,congruent,68,1,2.0622953828448654
5,L,R,0,6.614,-0.9,2,7.104,1.58,0.198,G068N13,10,1,-1,incongruent,68,0,1.889188614559601
6,L,R,1,8.551,-0.9,0,5.424,2.5,1.23,G068N13,10,1,-1,incongruent,68,1,2.146048235173818
7,L,R,1,8.38,-0.9,0,6.576,1.6,0.884,G068N13,10,1,-1,incongruent,68,1,2.125847914493992
8,R,L,0,16.325,1.8,1,9.12,0.393,-2.74,G068N13,10,-1,1,incongruent,68,1,2.792697675162495
9,R,R,0,3.545,0.6,2,5.352,-3.26,-0.424,G068N13,10,-1,-1,congruent,68,1,1.2655381599840907
10,R,N,1,6.802,0.9,NA,4.944,-0.369,-2.35,G068N13,10,-1,0,neutral,68,0,1.9172166865850035
11,L,N,1,5.779,-0.6,NA,3.528,2.45,0.394,G068N13,10,1,0,neutral,68,1,1.754230657335641
12,R,R,0,7.146,0.9,2,3.792,-3.11,-2.21,G068N13,10,-1,-1,congruent,68,1,1.966552759601218
13,L,L,1,9.482,-1.2,2,3.264,1.59,2.83,G068N13,10,1,1,congruent,68,1,2.2493952644799267
14,R,N,0,10.919,1.2,NA,NA,NA,NA,G068N13,10,-1,0,neutral,68,1,2.390504391031929
15,R,L,1,4.45,0.6,3,4.152,-1.35,-0.438,G068N13,10,-1,1,incongruent,68,0,1.4929040961781488
16,L,R,1,4.655,-0.6,1,NA,1.63,0.172,G068N13,10,1,-1,incongruent,68,1,1.5379419107290304
17,R,L,1,3.825,0.6,1,7.824,-1.95,-0.529,G068N13,10,-1,1,incongruent,68,0,1.3415584672784993
18,L,R,0,2.123,-0.3,2,2.952,2.65,NA,G068N13,10,1,-1,incongruent,68,0,0.7528301827211191
19,L,R,1,3.827,-0.6,3,NA,3.08,0.428,G068N13,10,1,-1,incongruent,68,1,1.3420812064435652
20,L,L,1,3.309,-0.6,1,3.528,3.21,0.004,G068N13,10,1,1,congruent,68,1,1.1966460289394751
21,R,R,0,15.793,1.8,1,6.336,-2.92,-3.77,G068N13,10,-1,-1,congruent,68,1,2.7595668038879175
22,R,N,1,11.184,1.2,NA,NA,NA,NA,G068N13,10,-1,0,neutral,68,0,2.4144841854914545
23,L,L,1,0.891,-0.3,2,3.144,0.944,NA,G068N13,10,1,1,congruent,68,1,-0.11541085151132773
24,R,L,1,8.348,0.9,2,NA,NA,NA,G068N13,10,-1,1,incongruent,68,0,2.1220219892149546
25,L,N,1,4.608,-0.6,NA,2.856,1.42,0.891,G068N13,10,1,0,neutral,68,1,1.52779392339359
26,L,N,1,7.677,-0.9,NA,4.008,1.32,1.17,G068N13,10,1,0,neutral,68,1,2.0382288458457616
27,L,L,1,6.755,-0.9,2,3.792,1.34,-0.026,G068N13,10,1,1,congruent,68,1,1.910282971412162
28,R,R,0,8.161,0.9,2,7.92,-1.44,-0.647,G068N13,10,-1,-1,congruent,68,1,2.099366710487106
29,L,R,0,0.391,-0.3,2,NA,NA,NA,G068N13,10,1,-1,incongruent,68,0,-0.9390477189967712
30,L,N,1,14.177,-1.5,NA,4.128,3.82,2.29,G068N13,10,1,0,neutral,68,1,2.6516209331354945
31,L,L,1,7.818,-0.9,2,2.088,2.94,1.24,G068N13,10,1,1,congruent,68,1,2.056428767370763
32,L,R,1,18.723,-2.1,3,5.376,1.78,3.39,G068N13,10,1,-1,incongruent,68,1,2.9297527146200157
33,R,N,0,7.067,0.9,NA,7.368,-2.57,-0.163,G068N13,10,-1,0,neutral,68,1,1.9554360617087172
34,L,L,1,9.638,-1.2,2,5.184,3.29,1.77,G068N13,10,1,1,congruent,68,1,2.265713618218141
35,R,L,0,11.841,1.2,1,5.64,-2.22,-2.56,G068N13,10,-1,1,incongruent,68,1,2.4715680853488196
36,R,R,0,9.574,1.2,0,2.88,-0.97,-0.745,G068N13,10,-1,-1,congruent,68,1,2.2590510909703174
37,R,R,0,12.458,1.5,0,6.336,-1.98,-2.45,G068N13,10,-1,-1,congruent,68,1,2.5223629868319537
38,L,L,1,10.872,-1.2,2,6.432,2.11,1.43,G068N13,10,1,1,congruent,68,1,2.386190676848843
39,L,L,1,7.771,-0.9,0,5.904,2.65,1.09,G068N13,10,1,1,congruent,68,1,2.050398856227105
40,R,R,0,6.333,0.9,0,8.712,-2.28,-0.424,G068N13,10,-1,-1,congruent,68,1,1.8457740575342934
41,L,R,1,9.107,-1.2,0,3.648,2.7,1.88,G068N13,10,1,-1,incongruent,68,1,2.2090433485856815
42,L,R,1,11.215,-1.2,1,4.704,1.14,0.959,G068N13,10,1,-1,incongruent,68,1,2.4172521679721717
43,R,L,1,3.982,0.6,2,3.792,-0.722,-0.491,G068N13,10,-1,1,incongruent,68,0,1.3817842056420047
44,R,R,0,9.903,1.2,1,5.64,NA,-1.76,G068N13,10,-1,-1,congruent,68,1,2.2928377415391656
45,R,L,1,4.686,0.6,1,NA,-1.74,-1.18,G068N13,10,-1,1,incongruent,68,0,1.5445793400856038
46,R,L,0,12.285,1.5,2,7.464,-1.29,-1.39,G068N13,10,-1,1,incongruent,68,1,2.5083790059731426
47,L,N,1,9.326,-1.2,NA,5.184,2.79,3.12,G068N13,10,1,0,neutral,68,1,2.2328061983861294
48,R,L,0,8.302,0.9,2,7.8,-2.13,-0.1,G068N13,10,-1,1,incongruent,68,1,2.116496449630847
49,L,L,1,8.411,-0.9,1,2.376,1.74,0.888,G068N13,10,1,1,congruent,68,1,2.1295403729803004
0,L,L,1,11.138,-1.2,1,8.496,0.349,0.788,G070N13,11,1,1,congruent,70,1,2.4103626851674766
1,L,R,0,6.88,-0.9,2,5.88,0.943,0.888,G070N13,11,1,-1,incongruent,70,0,1.9286186519452522
2,L,R,0,24.8,-2.7,2,8.568,0.02,6.93,G070N13,11,1,-1,incongruent,70,0,3.2108436531709366
3,L,N,1,17.981,-1.8,NA,5.16,2.74,3.58,G070N13,11,1,0,neutral,70,1,2.8893156448495008
4,R,R,0,19.332,2.1,2,8.304,-1.15,-5.77,G070N13,11,-1,-1,congruent,70,1,2.9617617539828376
5,L,L,1,15.637,-1.8,2,6.888,1.88,2.5,G070N13,11,1,1,congruent,70,1,2.749639900861373
6,L,L,1,23.574,-2.4,2,5.904,1.36,10.9,G070N13,11,1,1,congruent,70,1,3.160144409804378
7,L,L,1,22.511,-2.4,3,5.736,2.94,8.84,G070N13,11,1,1,congruent,70,1,3.114004078632026
8,R,R,0,27.402,3,3,3.936,-2.52,-9.81,G070N13,11,-1,-1,congruent,70,1,3.310616003430917
9,R,R,0,28.651,3,2,NA,NA,NA,G070N13,11,-1,-1,congruent,70,1,3.3551883465655794
10,L,R,1,24.081,-2.7,2,NA,NA,6.42,G070N13,11,1,-1,incongruent,70,1,3.1814231478175494
11,L,N,1,22.292,-2.4,NA,6.936,1.09,9.67,G070N13,11,1,0,neutral,70,1,3.10422786970729
12,R,L,0,30.253,3.3,1,6.408,-1.92,-10.5,G070N13,11,-1,1,incongruent,70,1,3.4095953531131977
13,R,L,0,32.768,3.3,2,6.024,-3.73,-15.4,G070N13,11,-1,1,incongruent,70,1,3.489452429417043
14,L,N,1,24.284,-2.7,NA,7.992,-0.048,5.94,G070N13,11,1,0,neutral,70,1,3.1898176972681878
15,R,L,0,43.251,4.5,3,5.736,-0.327,-18.5,G070N13,11,-1,1,incongruent,70,1,3.7670203544978764
16,L,L,1,23.589,-2.4,2,6.336,2.16,8.07,G070N13,11,1,1,congruent,70,1,3.160780501677489
17,R,N,0,10.419,1.2,NA,6.552,-2.09,-1.18,G070N13,11,-1,0,neutral,70,1,2.3436310624300467
18,R,R,0,23.823,2.4,2,5.352,-3.17,-10.7,G070N13,11,-1,-1,congruent,70,1,3.1706515005811835
19,R,L,1,31.644,3.3,2,NA,NA,NA,G070N13,11,-1,1,incongruent,70,0,3.45454855715915
20,R,N,0,21.651,2.4,NA,6.024,-1.13,-7.54,G070N13,11,-1,0,neutral,70,1,3.075051642758246
21,L,N,1,25.112,-2.7,NA,8.232,2.87,3.43,G070N13,11,1,0,neutral,70,1,3.2233458195396523
22,R,R,0,32.409,3.3,3,NA,NA,NA,G070N13,11,-1,-1,congruent,70,1,3.4784361620029576
23,L,R,1,31.08,-3.3,3,NA,NA,NA,G070N13,11,1,-1,incongruent,70,1,3.436564525499447
24,R,N,1,27.933,3,NA,4.224,-3.26,-3.91,G070N13,11,-1,0,neutral,70,0,3.329808785574502
25,R,L,1,3.061,0.6,2,NA,NA,NA,G070N13,11,-1,1,incongruent,70,0,1.1187416599632753
26,L,N,1,17.325,-1.8,NA,6.58,2.37,1.21,G070N13,11,1,0,neutral,70,1,2.852150545075967
27,R,L,1,0.142,0.3,2,NA,NA,NA,G070N13,11,-1,1,incongruent,70,0,-1.9519282213808764
28,R,R,1,1.758,0.3,2,NA,NA,NA,G070N13,11,-1,-1,congruent,70,0,0.5641767992629853
29,L,R,0,32.502,-3.3,1,6.48,-2.06,12.7,G070N13,11,1,-1,incongruent,70,0,3.481301625903817
30,L,R,1,19.816,-2.1,2,6.04,1.04,8.64,G070N13,11,1,-1,incongruent,70,1,2.9864896921870585
31,R,N,0,15.574,1.8,NA,6.96,-2.77,NA,G070N13,11,-1,0,neutral,70,1,2.745602857154794
32,L,R,1,18.85,-2.1,3,10.28,-1.1,NA,G070N13,11,1,-1,incongruent,70,1,2.93651291389402
33,L,L,1,29.433,-3,3,NA,NA,NA,G070N13,11,1,1,congruent,70,1,3.3821164938493635
34,L,R,1,26.941,-2.7,3,NA,NA,NA,G070N13,11,1,-1,incongruent,70,1,3.2936492898181755
35,R,L,0,31.533,3.3,3,NA,NA,NA,G070N13,11,-1,1,incongruent,70,1,3.451034616509327
36,R,L,1,28.088,3,2,12.54,-0.386,-8.17,G070N13,11,-1,1,incongruent,70,0,3.3353424388661312
37,R,R,0,29.011,3,3,5.68,-4.33,-5.64,G070N13,11,-1,-1,congruent,70,1,3.367675068411319
38,L,L,1,30.088,-3,3,NA,NA,NA,G070N13,11,1,1,congruent,70,1,3.4041264211680353
39,R,L,1,26.988,2.7,3,NA,NA,NA,G070N13,11,-1,1,incongruent,70,0,3.295392322765179
40,L,L,1,27.4,-3,2,NA,NA,NA,G070N13,11,1,1,congruent,70,1,3.3105430133940246
41,L,L,0,29.37,-3,1,6.24,0.317,8.19,G070N13,11,1,1,congruent,70,0,3.379973745210529
42,R,R,0,22.761,2.4,2,NA,NA,NA,G070N13,11,-1,-1,congruent,70,1,3.1250485450240473
43,R,N,0,16.95,1.8,NA,8.66,-1.42,-4.88,G070N13,11,-1,0,neutral,70,1,2.830267833826459
44,L,R,0,25.284,-2.7,3,NA,NA,NA,G070N13,11,1,-1,incongruent,70,0,3.2301717846100524
45,R,R,1,26.863,2.7,2,6.4,-1.96,-7.63,G070N13,11,-1,-1,congruent,70,0,3.290749875103919
46,L,R,1,31.909,-3.3,1,NA,NA,NA,G070N13,11,1,-1,incongruent,70,1,3.462888101660588
47,R,L,0,33.306,3.6,3,NA,NA,NA,G070N13,11,-1,1,incongruent,70,1,3.5057375609360792
48,R,R,0,30.112,3.3,1,8.6,1.41,-6.29,G070N13,11,-1,-1,congruent,70,1,3.404923763402969
49,L,L,1,25.909,-2.7,2,NA,NA,NA,G070N13,11,1,1,congruent,70,1,3.2545903986921942
0,L,R,0,4.632,-0.6,1,3.712,4.49,5.04,G070N13,11,1,-1,incongruent,70,0,1.532988740270694
1,L,L,1,15.511,-1.8,2,7.52,3.98,3.65,G070N13,11,1,1,congruent,70,1,2.741549449642614
2,L,R,0,14.629,-1.5,2,8.352,6.14,6.14,G070N13,11,1,-1,incongruent,70,0,2.683005859995949
3,L,R,0,15.981,-1.8,2,5.664,7.84,-0.524,G070N13,11,1,-1,incongruent,70,0,2.771400516602972
4,R,N,1,16.824,1.8,NA,7.328,-1.78,-4.39,G070N13,11,-1,0,neutral,70,0,2.8228064384003986
5,L,N,0,15.496,-1.8,NA,8.128,4.55,3.53,G070N13,11,1,0,neutral,70,0,2.740581926104695
6,R,R,0,17.668,1.8,2,8.16,-0.989,-2.17,G070N13,11,-1,-1,congruent,70,1,2.87175509373428
7,R,R,1,18.285,2.1,2,5.728,5.45,7.12,G070N13,11,-1,-1,congruent,70,0,2.9060810516013444
8,R,R,0,20.316,2.1,2,NA,NA,NA,G070N13,11,-1,-1,congruent,70,1,3.0114087529389986
9,L,N,1,5.825,-0.6,NA,4.464,0.841,0.656,G070N13,11,1,0,neutral,70,1,1.7621589994517644
10,R,L,1,19.535,2.1,2,NA,NA,NA,G070N13,11,-1,1,incongruent,70,0,2.972207728507034
11,R,L,1,25.398,2.7,2,7.152,-1.89,-8.2,G070N13,11,-1,1,incongruent,70,0,3.2346704307668417
12,R,L,0,21.354,2.4,2,8.432,-3.36,-5.75,G070N13,11,-1,1,incongruent,70,1,3.0612390757561108
13,L,L,1,21.089,-2.4,3,5.696,1.37,8.16,G070N13,11,1,1,congruent,70,1,3.0487515775296274
14,R,R,0,15.465,1.8,2,4.784,-2.71,-6.07,G070N13,11,-1,-1,congruent,70,1,2.738579406137033
15,L,L,1,18.097,-2.1,2,NA,NA,NA,G070N13,11,1,1,congruent,70,1,2.8957461786780643
16,L,L,0,14.832,-1.5,2,5.62,2.24,6.43,G070N13,11,1,1,congruent,70,0,2.6967870088234993
17,R,L,0,32.033,3.3,2,8.94,-1.62,-13.9,G070N13,11,-1,1,incongruent,70,1,3.466766621426733
18,R,N,0,16.918,1.8,NA,8.06,-3.69,-8.29,G070N13,11,-1,0,neutral,70,1,2.8283781438818227
19,R,L,0,24.073,2.4,2,8.44,-1.81,-10.7,G070N13,11,-1,1,incongruent,70,1,3.1810908805054425
20,R,R,0,16.152,1.8,2,3.72,-5.31,-5.14,G070N13,11,-1,-1,congruent,70,1,2.7820438810105363
21,R,L,1,19.723,2.1,2,4.18,-2.64,-8.2,G070N13,11,-1,1,incongruent,70,0,2.9817854674213664
22,R,R,0,13.238,1.5,3,NA,-2.22,-2.69,G070N13,11,-1,-1,congruent,70,1,2.583091481696731
23,L,L,1,17.23,-1.8,3,6.64,6.7,3.45,G070N13,11,1,1,congruent,70,1,2.8466520505398383
24,L,N,1,20.878,-2.1,NA,5.34,NA,9.15,G070N13,11,1,0,neutral,70,1,3.0386959729861065
25,L,R,0,28.198,-3,2,5.32,3.32,8.01,G070N13,11,1,-1,incongruent,70,0,3.3392510534431694
26,L,L,1,24.769,-2.7,2,7.68,-0.656,10.2,G070N13,11,1,1,congruent,70,1,3.2095928712692836
27,R,L,1,27.103,3,2,9.02,-3.92,-9.01,G070N13,11,-1,1,incongruent,70,0,3.299644422865751
28,L,R,0,27.494,-3,2,7.92,2.32,3.53,G070N13,11,1,-1,incongruent,70,0,3.3139677990492284
29,L,L,1,18.441,-2.1,2,NA,NA,NA,G070N13,11,1,1,congruent,70,1,2.914576446592982
30,R,R,0,30.971,3.3,2,9.016,-1.33,-1.3,G070N13,11,-1,-1,congruent,70,1,3.4330512827760606
31,L,L,1,26.019,-2.7,2,6.44,1.29,9.75,G070N13,11,1,1,congruent,70,1,3.2588270403704285
32,R,L,0,26.378,2.7,1,6.748,-1.04,-7.41,G070N13,11,-1,1,incongruent,70,1,3.272530329403693
33,R,N,0,13.973,1.5,NA,6.216,-2.43,-4.69,G070N13,11,-1,0,neutral,70,1,2.637126896098311
34,R,R,0,25.393,2.7,3,5.124,NA,-14.3,G070N13,11,-1,-1,congruent,70,1,3.234473545491255
35,R,R,0,24.027,2.4,3,6.832,-2.2,-14,G070N13,11,-1,-1,congruent,70,1,3.1791781980096547
36,L,L,1,20.066,-2.1,2,3.78,4.77,7.66,G070N13,11,1,1,congruent,70,1,2.999026840503421
37,L,R,0,26.408,-2.7,3,4.956,3.3,13.9,G070N13,11,1,-1,incongruent,70,0,3.273666994550892
38,L,L,1,27.886,-3,3,7.14,3.12,15.3,G070N13,11,1,1,congruent,70,1,3.3281247707728294
39,L,N,0,14.645,-1.5,NA,4.62,2.54,5.93,G070N13,11,1,0,neutral,70,0,2.6840989802796966
40,R,N,1,17.466,1.8,NA,7.196,-2.91,-7.43,G070N13,11,-1,0,neutral,70,0,2.860256133991541
41,R,R,0,24.143,2.7,3,NA,NA,NA,G070N13,11,-1,-1,congruent,70,1,3.183994483010017
42,R,L,0,28.854,3,3,6.944,-1.73,-9.89,G070N13,11,-1,1,incongruent,70,1,3.3622486315235807
43,R,N,0,14.082,1.5,NA,5.796,0.015,-1.12,G070N13,11,-1,0,neutral,70,1,2.6448973860969414
44,R,L,1,17.605,1.8,2,4.788,-3.54,-6.62,G070N13,11,-1,1,incongruent,70,0,2.868182952607016
45,L,R,0,22.683,-2.4,2,5.796,3.83,8.2,G070N13,11,1,-1,incongruent,70,0,3.1216157452442426
46,L,R,1,31.58,-3.3,2,NA,NA,NA,G070N13,11,1,-1,incongruent,70,1,3.452524008827496
47,L,N,1,26.425,-2.7,NA,9.212,3.06,10.9,G070N13,11,1,0,neutral,70,1,3.2743105317563015
48,L,R,1,26.238,-2.7,2,NA,NA,NA,G070N13,11,1,-1,incongruent,70,1,3.2672087416588385
49,L,R,0,30.283,-3.3,2,5.992,4.45,6.27,G070N13,11,1,-1,incongruent,70,0,3.410586498958841
0,R,N,0,11.138,1.2,NA,8.664,-4.3,-4.34,G072N13,12,-1,0,neutral,72,1,2.4103626851674766
1,R,R,0,10.544,1.2,1,8.736,-3.12,-4.23,G072N13,12,-1,-1,congruent,72,1,2.3555569777601515
2,R,R,0,10.887,1.2,1,4.32,-1.77,-2.54,G072N13,12,-1,-1,congruent,72,1,2.387569416899043
3,L,L,1,9.95,-1.2,1,7.32,3.91,4.19,G072N13,12,1,1,congruent,72,1,2.2975725511705014
4,L,R,0,20.88,-2.1,2,5.736,-0.302,-3.14,G072N13,12,1,-1,incongruent,72,0,3.038791763014438
5,R,L,0,11.638,1.2,2,NA,NA,NA,G072N13,12,-1,1,incongruent,72,1,2.454275606234478
6,R,N,0,9.497,1.2,NA,7.224,-0.819,0.519,G072N13,12,-1,0,neutral,72,1,2.2509759592608156
7,L,R,1,17.34,-1.8,2,6.432,0.863,4.09,G072N13,12,1,-1,incongruent,72,1,2.853015971352396
8,R,R,0,13.474,1.5,1,8.544,-1.05,-3.49,G072N13,12,-1,-1,congruent,72,1,2.6007619025384683
9,R,R,0,10.575,1.2,2,5.688,-4.32,-2.23,G072N13,12,-1,-1,congruent,72,1,2.3584927249323417
10,R,L,0,19.879,2.1,1,4.584,0.465,-5.29,G072N13,12,-1,1,incongruent,72,1,2.989663898152384
11,R,L,1,9.326,1.2,2,5.904,-5.08,-3.44,G072N13,12,-1,1,incongruent,72,0,2.2328061983861294
12,L,L,1,14.599,-1.5,2,6.768,3.2,4.81,G072N13,12,1,1,congruent,72,1,2.680953033217843
13,R,R,0,11.748,1.2,1,5.784,-1.74,-1.81,G072N13,12,-1,-1,congruent,72,1,2.4636830133363734
14,L,N,1,22.231,-2.4,NA,7.248,2.74,4.73,G072N13,12,1,0,neutral,72,1,3.1014877112198547
15,R,R,0,14.287,1.5,2,NA,NA,NA,G072N13,12,-1,-1,congruent,72,1,2.659350032883021
16,R,L,0,17.152,1.8,1,NA,NA,NA,G072N13,12,-1,1,incongruent,72,1,2.8421147848883916
17,L,R,1,16.746,-1.8,1,12.216,2.81,1.97,G072N13,12,1,-1,incongruent,72,1,2.81815942378224
18,R,L,0,11.372,1.2,1,NA,NA,NA,G072N13,12,-1,1,incongruent,72,1,2.4311541937887533
19,L,R,1,12.349,-1.5,1,6.336,2.01,1.65,G072N13,12,1,-1,incongruent,72,1,2.5135750881356853
20,R,R,0,12.614,1.5,2,8.496,-2.38,-3,G072N13,12,-1,-1,congruent,72,1,2.5348073082414597
21,L,N,1,14.614,-1.5,NA,8.232,2.65,2.41,G072N13,12,1,0,neutral,72,1,2.681979973369026
22,L,R,1,22.826,-2.4,3,10.584,-1.43,7.4,G072N13,12,1,-1,incongruent,72,1,3.127900237131408
23,L,N,1,14.911,-1.5,NA,7.128,-0.196,4.59,G072N13,12,1,0,neutral,72,1,2.7020991956087705
24,L,L,1,14.365,-1.5,2,5.88,2.65,2.97,G072N13,12,1,1,congruent,72,1,2.664794692431253
25,R,L,1,15.325,1.8,2,8.088,-1.65,-4.56,G072N13,12,-1,1,incongruent,72,0,2.729485481822275
26,L,L,0,13.552,-1.5,1,6.216,0.443,2,G072N13,12,1,1,congruent,72,0,2.6065341379096987
27,L,R,1,16.434,-1.8,1,8.712,3.97,2.41,G072N13,12,1,-1,incongruent,72,1,2.799352359508996
28,L,L,1,19.707,-2.1,2,8.496,5.08,6.67,G072N13,12,1,1,congruent,72,1,2.9809739025784454
29,L,L,1,18.348,-2.1,2,6.768,1.14,2.59,G072N13,12,1,1,congruent,72,1,2.9095205767349257
30,R,N,0,7.021,0.9,NA,8.52,0.076,-2.09,G072N13,12,-1,0,neutral,72,1,1.9489056580351118
31,R,L,1,15.183,1.8,1,8.304,-0.9,-1.61,G072N13,12,-1,1,incongruent,72,0,2.7201763809000505
32,L,L,1,16.511,-1.8,1,5.256,-4.27,4.3,G072N13,12,1,1,congruent,72,1,2.8040268254496956
33,L,R,1,20.394,-2.1,3,6.36,4.16,5.91,G072N13,12,1,-1,incongruent,72,1,3.015240739942034
34,R,L,0,10.091,1.2,1,6.816,-0.256,-2.26,G072N13,12,-1,1,incongruent,72,1,2.311643937482392
35,L,N,1,12.756,-1.5,NA,5.592,4.69,2.45,G072N13,12,1,0,neutral,72,1,2.5460017491478113
36,R,R,0,10.481,1.2,1,6.696,-1.26,-0.456,G072N13,12,-1,-1,congruent,72,1,2.3495640941880405
37,R,N,0,10.372,1.2,NA,6.672,-3.27,-4.96,G072N13,12,-1,0,neutral,72,1,2.339109867676418
38,L,L,0,12.02,-1.2,2,8.136,0.533,-0.016,G072N13,12,1,1,congruent,72,0,2.4865719291070616
39,R,N,1,4.896,0.6,NA,9.552,-1.76,-1.05,G072N13,12,-1,0,neutral,72,0,1.588418545210025
40,L,N,0,13.161,-1.5,NA,6.336,5.3,4.54,G072N13,12,1,0,neutral,72,0,2.5772579108521865
41,R,R,0,17.433,1.8,2,5.4,-4.46,-4.48,G072N13,12,-1,-1,congruent,72,1,2.8583649617610782
42,L,L,1,9.794,-1.2,1,6.384,3.54,2.15,G072N13,12,1,1,congruent,72,1,2.2817699532801257
43,L,R,0,14.614,-1.5,1,8.592,1.92,0.621,G072N13,12,1,-1,incongruent,72,0,2.681979973369026
44,R,L,1,21.933,2.4,2,10.296,-2.75,-6.18,G072N13,12,-1,1,incongruent,72,0,3.0879923519792887
45,L,R,0,15.748,-1.8,1,6.504,0.511,1.19,G072N13,12,1,-1,incongruent,72,0,2.756713373081491
46,L,L,1,16.355,-1.8,2,8.036,4.94,2.08,G072N13,12,1,1,congruent,72,1,2.7945336609903473
47,R,L,0,19.738,2.1,2,6.12,-1.16,-2.4,G072N13,12,-1,1,incongruent,72,1,2.9825457117498155
48,R,R,0,15.418,1.8,2,10.272,-1.79,-5.76,G072N13,12,-1,-1,congruent,72,1,2.73553565803707
49,L,R,1,20.441,-2.1,1,NA,NA,NA,G072N13,12,1,-1,incongruent,72,1,3.01754268781784
0,L,R,1,12.676,-1.5,2,6.216,5.07,7.38,G072N13,12,1,-1,incongruent,72,1,2.5397104418286744
